par_id,p_age,p_word,type_of_probe,colour,prime_f,probe_f,acc,reaction_time,TrialN,stim,cos,UNIQUE_ID
1,31,TRIBE,UNREL,r,3.651952199,4.189781038,1,1029.7142857142858,2,22,0.169582503,tiuxfl
1,31,TOWER,REL,r,4.257983625,4.604307777,1,402.95,5,51,0.65194005,tiuxfl
1,31,GLIRM,NONCE,b,4.189108375,NA,1,1187.3,6,32,NA,tiuxfl
1,31,GELPS,NONCE,b,4.438372257,NA,1,1032.5,9,56,NA,tiuxfl
1,31,PAPER,REL,b,4.33783738,5.230293913,1,866.4,10,30,0.359043466,tiuxfl
1,31,QUIBS,NONCE,b,4.104575844,NA,1,994.1,11,2,NA,tiuxfl
1,31,POWER,REL,r,5.294762043,5.588746199,1,423.5,12,3,0.120705124,tiuxfl
1,31,GRAPH,REL,b,4.223689768,4.176312386,1,999.7,13,48,0.141363369,tiuxfl
1,31,NERNS,NONCE,r,3.563555912,NA,1,1115.1599999999999,17,59,NA,tiuxfl
1,31,STUMP,UNREL,r,5.075778593,3.413519289,1,971.2380952380952,18,10,0.055355864,tiuxfl
1,31,MAFTS,NONCE,b,3.671694735,NA,1,937,21,38,NA,tiuxfl
1,31,TUTOR,UNREL,b,3.001120593,3.930647709,1,1044.441,22,43,0.092758339,tiuxfl
1,31,ESSAY,REL,b,4.78505379,4.668647528,1,982.5,23,24,0.229238232,tiuxfl
1,31,TRUNK,UNREL,r,3.681799882,4.022054607,1,815.9047619047619,27,46,-3.5711e-5,tiuxfl
1,31,MODEM,UNREL,b,3.96226586,3.755853299,1,975.458,29,25,0.012195619,tiuxfl
1,31,YURFS,NONCE,b,3.672348826,NA,1,1033.3000000000002,30,50,NA,tiuxfl
1,31,BROOM,REL,r,4.064504628,3.354276001,1,542.05,34,27,0.363666985,tiuxfl
1,31,DOOPS,NONCE,r,2.794650654,NA,1,1218.84,37,23,NA,tiuxfl
1,31,SHARK,UNREL,r,3.087558969,3.929769388,1,730.2857142857143,41,16,0.095724535,tiuxfl
1,31,BOARD,REL,b,5.617442386,5.350430177,1,836.7,43,42,0.291918533,tiuxfl
1,31,STAGE,REL,b,3.927682114,5.108336861,1,832.2,44,6,0.581022535,tiuxfl
1,31,RADAR,UNREL,r,2.761427779,4.205675385,1,840.5714285714286,45,34,0.042865261,tiuxfl
1,31,GELKS,NONCE,r,3.583221526,NA,1,1201.2,46,35,NA,tiuxfl
1,31,FLERG,NONCE,r,4.382518198,NA,1,1100.52,48,11,NA,tiuxfl
1,31,BESKS,NONCE,b,3.485497116,NA,1,1013.6,52,26,NA,tiuxfl
1,31,YOUTH,UNREL,b,4.216284055,4.938331983,1,811.939,53,31,0.110552167,tiuxfl
1,31,BASIL,UNREL,r,3.296803811,3.689125491,1,822.4761904761905,54,40,0.137191468,tiuxfl
1,31,GLOMP,NONCE,r,3.949644483,NA,1,1156.32,56,41,NA,tiuxfl
1,31,GUEST,REL,b,2.442833304,4.677271228,1,850.3,58,60,0.469866532,tiuxfl
1,31,PIANO,UNREL,b,3.496627781,4.453364025,1,864.8629999999999,59,19,0.066770659,tiuxfl
1,31,BERRY,UNREL,r,4.510372539,3.930373842,1,699.4285714285714,61,58,0.410938427,tiuxfl
1,31,DRAIN,REL,r,3.407217937,4.147611827,1,774,65,21,0.387145282,tiuxfl
1,31,YULBS,NONCE,r,3.223196377,NA,1,1097.1599999999999,67,47,NA,tiuxfl
1,31,SLANG,UNREL,b,4.141850119,3.39835149,1,1033.3310000000001,68,7,0.049636608,tiuxfl
1,31,BRIDE,UNREL,b,3.570916411,3.990911755,1,790.2239999999999,69,55,0.039438298,tiuxfl
1,31,GLOBE,UNREL,r,3.506495478,4.416076472,1,774.4761904761905,74,52,0.282091996,tiuxfl
1,31,ALARM,UNREL,b,3.659160937,4.273577104,1,1411.374,75,49,0.146049347,tiuxfl
1,31,DWERT,NONCE,b,3.331052745,NA,1,970.4,77,14,NA,tiuxfl
1,31,OLIVE,UNREL,b,4.870998895,4.138893633,1,873.246,78,13,0.046719131,tiuxfl
1,31,CADET,UNREL,b,4.054597373,3.463204461,1,789.1129999999999,81,1,0.239131041,tiuxfl
1,31,NULSE,NONCE,r,3.590390365,NA,1,1117.32,82,17,NA,tiuxfl
1,31,BONUS,REL,b,5.005747312,4.515522967,1,819.6999999999999,83,18,0.125759944,tiuxfl
1,31,STUNT,UNREL,r,3.734240866,3.567262547,1,712.2857142857142,84,4,0.101478916,tiuxfl
1,31,DIRPS,NONCE,r,3.316655402,NA,1,1062.48,85,5,NA,tiuxfl
1,31,DAIRY,REL,r,2.459390987,4.20061812,1,401.05,86,57,0.241572992,tiuxfl
1,31,BRICK,REL,r,4.042783642,4.255257406,1,391.6,87,9,0.647438362,tiuxfl
1,31,PLANT,REL,r,3.541556206,5.026411782,1,373.25,90,45,0.501397476,tiuxfl
1,31,INDEX,UNREL,r,3.571960851,4.74479794,1,746.5714285714287,91,28,0.069182129,tiuxfl
1,31,BRURL,NONCE,b,4.166816978,NA,1,1052.2,93,20,NA,tiuxfl
1,31,WHEEL,REL,r,3.784228166,4.550270351,1,423.04999999999995,97,39,0.656811439,tiuxfl
1,31,NIRCH,NONCE,r,3.827345184,NA,1,997.44,102,53,NA,tiuxfl
1,31,HORSE,REL,r,3.484128918,4.713931387,1,391.15,103,15,0.821285068,tiuxfl
1,31,STAFF,REL,b,4.460251055,5.302678942,1,751.1,107,12,0.365606156,tiuxfl
1,31,SALON,UNREL,b,3.499480888,3.900709192,1,773.2559999999999,108,37,0.110577655,tiuxfl
1,31,STEEL,REL,r,4.528661332,4.773777517,1,3257.8,110,33,0.358177388,tiuxfl
1,31,ROKES,NONCE,b,4.271877839,NA,1,1033.9,111,44,NA,tiuxfl
1,31,PIVED,NONCE,b,3.603458685,NA,1,984.2,112,8,NA,tiuxfl
1,31,DROWL,NONCE,r,2.935126552,NA,1,1961.6399999999999,115,29,NA,tiuxfl
1,31,BLOOD,REL,b,3.147773871,5.105996143,1,1336.9,116,36,0.229315858,tiuxfl
1,31,STAMP,REL,b,2.954817735,4.107372874,1,864.5,119,54,0.44493658,tiuxfl
2,31,GLOBE,UNREL,b,3.506495478,4.416076472,1,928.19,3,52,0.282091996,jbs1vk
2,31,BERRY,UNREL,b,4.510372539,3.930373842,1,986.77,8,58,0.410938427,jbs1vk
2,31,PLANT,REL,b,3.541556206,5.026411782,1,923,10,45,0.501397476,jbs1vk
2,31,PIVED,NONCE,r,3.603458685,NA,1,1387.2,11,8,NA,jbs1vk
2,31,DIRPS,NONCE,b,3.316655402,NA,1,1259,13,5,NA,jbs1vk
2,31,BRURL,NONCE,r,4.166816978,NA,1,1251.6,17,20,NA,jbs1vk
2,31,STAGE,REL,r,3.927682114,5.108336861,1,421.5,18,6,0.581022535,jbs1vk
2,31,TOWER,REL,b,4.257983625,4.604307777,1,819,19,51,0.65194005,jbs1vk
2,31,ROKES,NONCE,r,4.271877839,NA,1,1728,20,44,NA,jbs1vk
2,31,GUEST,REL,r,2.442833304,4.677271228,1,439,21,60,0.469866532,jbs1vk
2,31,HORSE,REL,b,3.484128918,4.713931387,1,784,22,15,0.821285068,jbs1vk
2,31,YULBS,NONCE,b,3.223196377,NA,1,1025,23,47,NA,jbs1vk
2,31,GLIRM,NONCE,r,4.189108375,NA,1,1015.1999999999999,26,32,NA,jbs1vk
2,31,STAFF,REL,r,4.460251055,5.302678942,1,639.5,27,12,0.365606156,jbs1vk
2,31,NULSE,NONCE,b,3.590390365,NA,1,1123,28,17,NA,jbs1vk
2,31,BLOOD,REL,r,3.147773871,5.105996143,1,520,29,36,0.229315858,jbs1vk
2,31,BRIDE,UNREL,r,3.570916411,3.990911755,1,681.9047619047619,31,55,0.039438298,jbs1vk
2,31,STAMP,REL,r,2.954817735,4.107372874,1,483.5,33,54,0.44493658,jbs1vk
2,31,MAFTS,NONCE,r,3.671694735,NA,1,1114.8,35,38,NA,jbs1vk
2,31,NIRCH,NONCE,b,3.827345184,NA,1,979,38,53,NA,jbs1vk
2,31,BESKS,NONCE,r,3.485497116,NA,1,1124.3999999999999,46,26,NA,jbs1vk
2,31,INDEX,UNREL,b,3.571960851,4.74479794,1,1005.96,47,28,0.069182129,jbs1vk
2,31,CADET,UNREL,r,4.054597373,3.463204461,1,833.3333333333333,48,1,0.239131041,jbs1vk
2,31,TRUNK,UNREL,b,3.681799882,4.022054607,1,994.85,50,46,-3.5711e-5,jbs1vk
2,31,MODEM,UNREL,r,3.96226586,3.755853299,1,1103.8095238095239,53,25,0.012195619,jbs1vk
2,31,QUIBS,NONCE,r,4.104575844,NA,1,1730.3999999999999,54,2,NA,jbs1vk
2,31,SALON,UNREL,r,3.499480888,3.900709192,1,645.7142857142857,56,37,0.110577655,jbs1vk
2,31,PIANO,UNREL,r,3.496627781,4.453364025,1,1045.7142857142858,59,19,0.066770659,jbs1vk
2,31,TUTOR,UNREL,r,3.001120593,3.930647709,1,955.2380952380952,61,43,0.092758339,jbs1vk
2,31,DAIRY,REL,b,2.459390987,4.20061812,1,805,62,57,0.241572992,jbs1vk
2,31,PAPER,REL,r,4.33783738,5.230293913,1,513,63,30,0.359043466,jbs1vk
2,31,SLANG,UNREL,r,4.141850119,3.39835149,1,872.3809523809523,64,7,0.049636608,jbs1vk
2,31,TRIBE,UNREL,b,3.651952199,4.189781038,1,906.98,65,22,0.169582503,jbs1vk
2,31,DROWL,NONCE,b,2.935126552,NA,1,1479,66,29,NA,jbs1vk
2,31,BASIL,UNREL,b,3.296803811,3.689125491,1,1036.26,68,40,0.137191468,jbs1vk
2,31,RADAR,UNREL,b,2.761427779,4.205675385,1,1010,70,34,0.042865261,jbs1vk
2,31,NERNS,NONCE,b,3.563555912,NA,1,1182,71,59,NA,jbs1vk
2,31,BROOM,REL,b,4.064504628,3.354276001,1,1098,72,27,0.363666985,jbs1vk
2,31,STUNT,UNREL,b,3.734240866,3.567262547,1,977.6800000000001,74,4,0.101478916,jbs1vk
2,31,GELPS,NONCE,r,4.438372257,NA,1,1315.2,76,56,NA,jbs1vk
2,31,BRICK,REL,b,4.042783642,4.255257406,1,1059,77,9,0.647438362,jbs1vk
2,31,GLOMP,NONCE,b,3.949644483,NA,1,1103,80,41,NA,jbs1vk
2,31,BOARD,REL,r,5.617442386,5.350430177,1,521.5,81,42,0.291918533,jbs1vk
2,31,YURFS,NONCE,r,3.672348826,NA,1,1531.2,82,50,NA,jbs1vk
2,31,DRAIN,REL,b,3.407217937,4.147611827,1,996,84,21,0.387145282,jbs1vk
2,31,GELKS,NONCE,b,3.583221526,NA,1,1137,85,35,NA,jbs1vk
2,31,OLIVE,UNREL,r,4.870998895,4.138893633,1,814.2857142857142,87,13,0.046719131,jbs1vk
2,31,ESSAY,REL,r,4.78505379,4.668647528,1,519,89,24,0.229238232,jbs1vk
2,31,POWER,REL,b,5.294762043,5.588746199,1,975,97,3,0.120705124,jbs1vk
2,31,WHEEL,REL,b,3.784228166,4.550270351,1,1040,98,39,0.656811439,jbs1vk
2,31,ALARM,UNREL,r,3.659160937,4.273577104,1,842.8571428571428,99,49,0.146049347,jbs1vk
2,31,STEEL,REL,b,4.528661332,4.773777517,1,941,100,33,0.358177388,jbs1vk
2,31,STUMP,UNREL,b,5.075778593,3.413519289,1,1004.95,101,10,0.055355864,jbs1vk
2,31,YOUTH,UNREL,r,4.216284055,4.938331983,1,984.7619047619047,103,31,0.110552167,jbs1vk
2,31,DOOPS,NONCE,b,2.794650654,NA,1,1067,109,23,NA,jbs1vk
2,31,BONUS,REL,r,5.005747312,4.515522967,1,502,112,18,0.125759944,jbs1vk
2,31,FLERG,NONCE,b,4.382518198,NA,1,1154,114,11,NA,jbs1vk
2,31,DWERT,NONCE,r,3.331052745,NA,1,1363.2,116,14,NA,jbs1vk
2,31,GRAPH,REL,r,4.223689768,4.176312386,1,499,118,48,0.141363369,jbs1vk
2,31,SHARK,UNREL,b,3.087558969,3.929769388,1,904.96,119,16,0.095724535,jbs1vk
3,25,BIRTH,REL,r,3.331052745,4.789408745,1,583.8,1,14,0.686182952,4dugc7
3,25,WOOSE,NONCE,b,4.054597373,NA,1,979,2,1,NA,4dugc7
3,25,BACON,REL,b,3.590390365,3.975196615,1,1135.4,7,17,0.581803613,4dugc7
3,25,FLOVE,NONCE,b,3.499480888,NA,1,1178.7,9,37,NA,4dugc7
3,25,MELON,UNREL,r,5.294762043,3.192247125,1,974.2857142857142,12,3,0.029311037,4dugc7
3,25,VECTS,NONCE,r,3.651952199,NA,1,1259.5199999999998,13,22,NA,4dugc7
3,25,FIGHT,REL,r,3.603458685,4.976780877,1,491.45,15,8,0.546862958,4dugc7
3,25,MUSIC,REL,b,3.949644483,5.474563669,1,980.3,20,41,0.500925534,4dugc7
3,25,LORRY,REL,b,2.794650654,3.193575913,1,858,28,23,0.504048878,4dugc7
3,25,PARTY,REL,r,4.104575844,5.35027968,1,481.9,29,2,0.643797235,4dugc7
3,25,MODEL,REL,b,3.223196377,5.311004219,1,1137.3,32,47,0.31482591,4dugc7
3,25,OCEAN,REL,r,3.671694735,4.714494586,1,490.3,34,38,0.436893167,4dugc7
3,25,GENCE,NONCE,r,2.761427779,NA,1,1581.9599999999998,35,34,NA,4dugc7
3,25,MERCY,UNREL,b,2.954817735,4.227867511,1,1347.845,36,54,0.200530544,4dugc7
3,25,TRAIN,REL,b,3.563555912,4.884322105,1,1121.2,38,59,0.704060439,4dugc7
3,25,SMILE,REL,b,3.827345184,4.538804727,1,1132.4,39,53,0.356322599,4dugc7
3,25,NYLON,UNREL,r,4.257983625,3.681235784,1,1111.3333333333335,41,51,0.023932131,4dugc7
3,25,POUCH,UNREL,b,5.005747312,3.519602188,1,1767.298,45,18,0.028582389,4dugc7
3,25,ACORN,UNREL,b,4.460251055,3.430462728,1,3082.621,46,12,0.053296581,4dugc7
3,25,GNISP,NONCE,r,3.681799882,NA,1,1657.9199999999998,47,46,NA,4dugc7
3,25,MARCH,REL,r,4.271877839,5.33947384,1,531.75,48,44,0.149010967,4dugc7
3,25,GRANT,REL,b,2.935126552,4.850225334,1,1068.5,49,29,0.693079255,4dugc7
3,25,GLAFT,NONCE,r,4.510372539,NA,1,1436.64,51,58,NA,4dugc7
3,25,JULTS,NONCE,r,3.087558969,NA,1,1401.36,53,16,NA,4dugc7
3,25,WHEAT,UNREL,b,5.617442386,4.199949835,1,1141.4009999999998,54,42,0.072750297,4dugc7
3,25,PLANE,REL,b,4.382518198,4.578922163,1,980.5,55,11,0.297423709,4dugc7
3,25,GRAPE,UNREL,r,3.484128918,3.75194906,1,862.7619047619047,58,15,0.044440644,4dugc7
3,25,GARGE,NONCE,b,3.96226586,NA,1,2302,61,25,NA,4dugc7
3,25,SPOON,UNREL,b,4.223689768,3.744015211,1,856.985,62,48,0.030983292,4dugc7
3,25,LAUGH,REL,r,3.672348826,4.316053735,1,456.9,65,50,0.419525812,4dugc7
3,25,WRUNK,NONCE,r,3.296803811,NA,1,1418.5199999999998,66,40,NA,4dugc7
3,25,PIPER,UNREL,b,2.442833304,3.583693845,1,1082.013,67,60,0.332504352,4dugc7
3,25,SPIFT,NONCE,r,3.734240866,NA,1,1416.9600000000003,70,4,NA,4dugc7
3,25,KNURN,NONCE,b,4.216284055,NA,1,1120.7,72,31,NA,4dugc7
3,25,DISCO,UNREL,r,3.541556206,3.655557686,1,822.5714285714286,73,45,0.069841755,4dugc7
3,25,SWILK,NONCE,r,3.571960851,NA,1,1328.88,74,28,NA,4dugc7
3,25,ONION,UNREL,b,3.147773871,3.874821707,1,1000.304,76,36,0.024638016,4dugc7
3,25,PEARL,UNREL,r,3.784228166,4.091225612,1,991.3333333333334,78,39,0.144013775,4dugc7
3,25,PEACE,REL,r,4.166816978,5.000544983,1,462,79,20,0.399338922,4dugc7
3,25,ALIEN,UNREL,r,4.064504628,4.254807488,1,829.9047619047618,81,27,0.128075313,4dugc7
3,25,SALAD,UNREL,r,3.407217937,4.075985546,1,860.6666666666666,84,21,0.086324713,4dugc7
3,25,SPORT,REL,b,3.583221526,4.682414816,1,914.3,85,35,0.345946689,4dugc7
3,25,WROSH,NONCE,b,3.001120593,NA,1,1232.3,86,43,NA,4dugc7
3,25,FIELD,REL,r,4.189108375,5.35321928,1,598.55,87,32,0.284884024,4dugc7
3,25,BINGO,UNREL,b,4.78505379,3.844663502,1,889.002,88,24,0.042999458,4dugc7
3,25,FAITH,REL,r,3.485497116,4.909946679,1,415.5,90,26,0.387246038,4dugc7
3,25,TIRTH,NONCE,r,5.075778593,NA,1,1642.68,92,10,NA,4dugc7
3,25,TROLF,NONCE,b,4.141850119,NA,1,1013.6,93,7,NA,4dugc7
3,25,DWEED,NONCE,r,3.506495478,NA,1,1806.48,96,52,NA,4dugc7
3,25,CURRY,UNREL,r,4.528661332,3.821678729,1,931.5238095238095,97,33,0.096814912,4dugc7
3,25,STOUT,UNREL,b,3.927682114,3.549681245,1,1113.4240000000002,99,6,0.073515012,4dugc7
3,25,JESKS,NONCE,b,3.496627781,NA,1,1432.4,101,19,NA,4dugc7
3,25,SMECK,NONCE,b,3.570916411,NA,1,1132,103,55,NA,4dugc7
3,25,AISLE,UNREL,b,4.33783738,3.65360327,1,931.927,104,30,0.040631859,4dugc7
3,25,TRADE,REL,b,3.316655402,5.154909161,1,1036.2,105,5,0.538092297,4dugc7
3,25,DINTH,NONCE,b,4.870998895,NA,1,1188.9,107,13,NA,4dugc7
3,25,TORSO,UNREL,r,4.042783642,3.489874614,1,871.8095238095237,108,9,0.091146301,4dugc7
3,25,SWEFT,NONCE,b,3.659160937,NA,1,1465.3,109,49,NA,4dugc7
3,25,VOICE,REL,r,4.438372257,5.048236364,1,467.35,110,56,0.43050393,4dugc7
3,25,TIGER,UNREL,r,2.459390987,4.142626275,1,704.2857142857142,116,57,0.34483263,4dugc7
4,27,YEAST,UNREL,r,4.166816978,3.894766559,1,1018.2857142857141,2,20,0.003929906,rxwb9p
4,27,BUNNY,UNREL,b,2.935126552,3.642666662,1,995.1529999999999,3,29,0.032653466,rxwb9p
4,27,CLASS,REL,r,4.870998895,5.343083165,1,417.25,5,13,0.359033021,rxwb9p
4,27,BRAND,REL,r,3.496627781,4.931775687,1,392.1,8,19,0.385224937,rxwb9p
4,27,RHINO,UNREL,b,4.382518198,3.433099598,1,927.2810000000001,10,11,0.053885011,rxwb9p
4,27,MEDAL,REL,r,3.96226586,4.351910561,1,467.2,13,25,0.674954706,rxwb9p
4,27,GLIMP,NONCE,b,2.954817735,NA,1,1067.7,16,54,NA,rxwb9p
4,27,PANCH,NONCE,r,4.064504628,NA,1,920.88,21,27,NA,rxwb9p
4,27,MOVIE,REL,b,4.510372539,4.993537163,1,1322.5,22,58,0.442868415,rxwb9p
4,27,BRUTE,UNREL,r,3.331052745,3.399301254,1,858.3809523809523,24,14,0.067550257,rxwb9p
4,27,DRILL,UNREL,b,3.223196377,4.171446442,1,994.1429999999999,26,47,0.118019216,rxwb9p
4,27,PLOBS,NONCE,b,3.927682114,NA,1,802.2,29,6,NA,rxwb9p
4,27,SPEED,REL,b,3.087558969,5.04588704,1,952.2,30,16,0.490664923,rxwb9p
4,27,YAWKS,NONCE,r,4.257983625,NA,1,1002.84,32,51,NA,rxwb9p
4,27,PATIO,UNREL,b,3.563555912,3.954710348,1,933.745,33,59,0.06281869,rxwb9p
4,27,GLARM,NONCE,b,5.005747312,NA,1,701.7,35,18,NA,rxwb9p
4,27,SPAMP,NONCE,r,4.528661332,NA,1,1061.8799999999999,37,33,NA,rxwb9p
4,27,STRUG,NONCE,b,5.617442386,NA,1,718.3000000000001,38,42,NA,rxwb9p
4,27,LINEN,UNREL,b,3.949644483,3.76364436,1,826.3820000000001,40,41,0.008169191,rxwb9p
4,27,RADIO,REL,b,3.571960851,5.026411461,1,800.6,43,28,0.703118549,rxwb9p
4,27,LUNCH,REL,b,2.761427779,4.606665233,1,785.5999999999999,44,34,0.479175879,rxwb9p
4,27,BEARD,REL,b,3.651952199,3.815537153,1,818.1,45,22,0.477421541,rxwb9p
4,27,LERTH,NONCE,r,2.459390987,NA,1,881.64,46,57,NA,rxwb9p
4,27,SHARE,REL,r,4.141850119,5.267842197,1,400.75,47,7,0.612401491,rxwb9p
4,27,GLUSK,NONCE,r,5.294762043,NA,1,801.12,49,3,NA,rxwb9p
4,27,THOOB,NONCE,b,4.223689768,NA,1,684.4,50,48,NA,rxwb9p
4,27,MATCH,REL,b,3.681799882,4.975835563,1,818.4,52,46,0.258602769,rxwb9p
4,27,ORDER,REL,b,5.075778593,5.575114555,1,750.8000000000001,56,10,0.143788679,rxwb9p
4,27,SONGE,NONCE,r,3.407217937,NA,1,821.88,57,21,NA,rxwb9p
4,27,VENUS,UNREL,b,2.794650654,3.875248254,1,1011.01,59,23,0.16601469,rxwb9p
4,27,GUTHS,NONCE,r,3.484128918,NA,1,881.4,60,15,NA,rxwb9p
4,27,COMMA,UNREL,b,3.316655402,3.339578962,1,1109.283,62,5,0.068335277,rxwb9p
4,27,GRADE,REL,r,3.659160937,4.730948829,1,350.65000000000003,66,49,0.402394073,rxwb9p
4,27,HINGE,UNREL,r,4.104575844,3.553564965,1,794.8571428571429,68,2,0.007983453,rxwb9p
4,27,TABLE,UNREL,r,4.271877839,5.173113896,1,730.7619047619047,70,44,0.091154285,rxwb9p
4,27,LOGIC,UNREL,b,3.583221526,4.517884107,1,877.084,72,35,0.190464999,rxwb9p
4,27,LASER,REL,r,3.570916411,4.427679227,1,409.1,73,55,0.456487588,rxwb9p
4,27,PASTE,UNREL,r,3.485497116,4.06414926,1,644.1904761904761,74,26,0.039538417,rxwb9p
4,27,MONEY,REL,b,3.734240866,5.445211745,1,791.6999999999999,75,4,0.309071146,rxwb9p
4,27,LORKS,NONCE,r,4.042783642,NA,1,901.4399999999999,77,9,NA,rxwb9p
4,27,ABBEY,UNREL,r,3.671694735,3.984588569,1,938.0952380952381,81,38,0.119944522,rxwb9p
4,27,FLUID,UNREL,r,3.672348826,4.467858603,1,889.9047619047618,82,50,0.037918829,rxwb9p
4,27,VIRUS,REL,r,3.499480888,4.520684432,1,409.15000000000003,83,37,0.262233394,rxwb9p
4,27,VINYL,UNREL,b,3.590390365,4.062863781,1,767.9029999999999,85,17,0.121592092,rxwb9p
4,27,GRULT,NONCE,b,4.33783738,NA,1,898.3,87,30,NA,rxwb9p
4,27,GOOSE,UNREL,b,3.827345184,3.750050502,1,876.579,88,53,0.118541471,rxwb9p
4,27,NORPS,NONCE,r,3.541556206,NA,1,861.12,91,45,NA,rxwb9p
4,27,SMIME,NONCE,b,4.460251055,NA,1,818,95,12,NA,rxwb9p
4,27,AGENT,REL,b,3.296803811,4.753427409,1,734.3,99,40,0.337449731,rxwb9p
4,27,FRUIT,REL,r,3.001120593,4.68106214,1,342.55,101,43,0.276487326,rxwb9p
4,27,KNIFE,REL,r,4.054597373,4.235952941,1,327.90000000000003,103,1,0.245669374,rxwb9p
4,27,BLEPH,NONCE,b,3.147773871,NA,1,918.2,106,36,NA,rxwb9p
4,27,JELLY,UNREL,r,4.189108375,3.64832932,1,921.9047619047618,108,32,0.138065285,rxwb9p
4,27,BEERS,REL,b,3.506495478,3.8393205,1,834.9,109,52,0.631759898,rxwb9p
4,27,KNARN,NONCE,r,3.784228166,NA,1,1044.6,110,39,NA,rxwb9p
4,27,GLIPS,NONCE,b,4.78505379,NA,1,684.9,116,24,NA,rxwb9p
4,27,SEWER,UNREL,r,3.603458685,3.789496554,1,582.8571428571428,117,8,0.02763056,rxwb9p
4,27,FROST,UNREL,r,4.438372257,3.939753275,1,635.7142857142857,118,56,0.081929196,rxwb9p
4,27,IMAGE,REL,r,4.216284055,5.236261817,1,294.25,120,31,0.645265134,rxwb9p
5,33,SPORT,REL,r,3.583221526,4.682414816,1,334.05,1,35,0.345946689,fp7bef
5,33,PIPER,UNREL,r,2.442833304,3.583693845,1,723.9047619047619,2,60,0.332504352,fp7bef
5,33,MARCH,REL,b,4.271877839,5.33947384,1,702.8,4,44,0.149010967,fp7bef
5,33,ONION,UNREL,r,3.147773871,3.874821707,1,604.7619047619047,6,36,0.024638016,fp7bef
5,33,DISCO,UNREL,b,3.541556206,3.655557686,1,658.4190000000001,8,45,0.069841755,fp7bef
5,33,NYLON,UNREL,b,4.257983625,3.681235784,1,722.8570000000001,12,51,0.023932131,fp7bef
5,33,BACON,REL,r,3.590390365,3.975196615,1,292.04999999999995,13,17,0.581803613,fp7bef
5,33,MODEL,REL,r,3.223196377,5.311004219,1,290.95,18,47,0.31482591,fp7bef
5,33,ALIEN,UNREL,b,4.064504628,4.254807488,1,658.217,19,27,0.128075313,fp7bef
5,33,DWEED,NONCE,b,3.506495478,NA,1,698.2,20,52,NA,fp7bef
5,33,VOICE,REL,b,4.438372257,5.048236364,1,583.4,21,56,0.43050393,fp7bef
5,33,MUSIC,REL,r,3.949644483,5.474563669,1,286.84999999999997,23,41,0.500925534,fp7bef
5,33,STOUT,UNREL,r,3.927682114,3.549681245,1,824.3809523809524,25,6,0.073515012,fp7bef
5,33,BINGO,UNREL,r,4.78505379,3.844663502,1,585.5238095238095,26,24,0.042999458,fp7bef
5,33,GRAPE,UNREL,b,3.484128918,3.75194906,1,559.6410000000001,30,15,0.044440644,fp7bef
5,33,PARTY,REL,b,4.104575844,5.35027968,1,532.6999999999999,32,2,0.643797235,fp7bef
5,33,GNISP,NONCE,b,3.681799882,NA,1,617.8000000000001,36,46,NA,fp7bef
5,33,SALAD,UNREL,b,3.407217937,4.075985546,1,638.825,37,21,0.086324713,fp7bef
5,33,TIRTH,NONCE,b,5.075778593,NA,1,855,41,10,NA,fp7bef
5,33,FLOVE,NONCE,r,3.499480888,NA,1,818.64,42,37,NA,fp7bef
5,33,WHEAT,UNREL,r,5.617442386,4.199949835,1,619.4285714285713,43,42,0.072750297,fp7bef
5,33,LORRY,REL,r,2.794650654,3.193575913,1,318.65,44,23,0.504048878,fp7bef
5,33,PEARL,UNREL,b,3.784228166,4.091225612,1,844.259,47,39,0.144013775,fp7bef
5,33,FIGHT,REL,b,3.603458685,4.976780877,1,617.1,48,8,0.546862958,fp7bef
5,33,TIGER,UNREL,b,2.459390987,4.142626275,1,656.399,49,57,0.34483263,fp7bef
5,33,TORSO,UNREL,b,4.042783642,3.489874614,1,673.064,51,9,0.091146301,fp7bef
5,33,GRANT,REL,r,2.935126552,4.850225334,1,267.55,53,29,0.693079255,fp7bef
5,33,MELON,UNREL,b,5.294762043,3.192247125,1,537.9259999999999,57,3,0.029311037,fp7bef
5,33,GENCE,NONCE,b,2.761427779,NA,1,700.3000000000001,58,34,NA,fp7bef
5,33,JULTS,NONCE,b,3.087558969,NA,1,734.9,59,16,NA,fp7bef
5,33,BIRTH,REL,b,3.331052745,4.789408745,1,583.3000000000001,64,14,0.686182952,fp7bef
5,33,SPOON,UNREL,r,4.223689768,3.744015211,1,546.952380952381,66,48,0.030983292,fp7bef
5,33,LAUGH,REL,b,3.672348826,4.316053735,1,585.2,67,50,0.419525812,fp7bef
5,33,CURRY,UNREL,b,4.528661332,3.821678729,1,537.9259999999999,70,33,0.096814912,fp7bef
5,33,AISLE,UNREL,r,4.33783738,3.65360327,1,575.1428571428571,72,30,0.040631859,fp7bef
5,33,GARGE,NONCE,r,3.96226586,NA,1,820.0799999999999,74,25,NA,fp7bef
5,33,VECTS,NONCE,b,3.651952199,NA,1,700.8,75,22,NA,fp7bef
5,33,ACORN,UNREL,r,4.460251055,3.430462728,1,650.952380952381,77,12,0.053296581,fp7bef
5,33,PEACE,REL,b,4.166816978,5.000544983,1,640.8000000000001,78,20,0.399338922,fp7bef
5,33,MERCY,UNREL,r,2.954817735,4.227867511,1,608.2857142857143,79,54,0.200530544,fp7bef
5,33,OCEAN,REL,b,3.671694735,4.714494586,1,559.5,80,38,0.436893167,fp7bef
5,33,WRUNK,NONCE,b,3.296803811,NA,1,612,82,40,NA,fp7bef
5,33,SMECK,NONCE,r,3.570916411,NA,1,762.72,83,55,NA,fp7bef
5,33,POUCH,UNREL,r,5.005747312,3.519602188,1,697.2380952380952,84,18,0.028582389,fp7bef
5,33,KNURN,NONCE,r,4.216284055,NA,1,844.1999999999999,86,31,NA,fp7bef
5,33,SMILE,REL,r,3.827345184,4.538804727,1,283.25,87,53,0.356322599,fp7bef
5,33,PLANE,REL,r,4.382518198,4.578922163,1,292.35,88,11,0.297423709,fp7bef
5,33,TRAIN,REL,r,3.563555912,4.884322105,1,275.8,89,59,0.704060439,fp7bef
5,33,SWILK,NONCE,b,3.571960851,NA,1,647.8000000000001,90,28,NA,fp7bef
5,33,WROSH,NONCE,r,3.001120593,NA,1,959.4,93,43,NA,fp7bef
5,33,FAITH,REL,b,3.485497116,4.909946679,1,583.9,95,26,0.387246038,fp7bef
5,33,TRADE,REL,r,3.316655402,5.154909161,1,268,99,5,0.538092297,fp7bef
5,33,JESKS,NONCE,r,3.496627781,NA,1,820.4399999999999,100,19,NA,fp7bef
5,33,GLAFT,NONCE,b,4.510372539,NA,1,826.9,106,58,NA,fp7bef
5,33,TROLF,NONCE,r,4.141850119,NA,1,826.92,107,7,NA,fp7bef
5,33,SWEFT,NONCE,r,3.659160937,NA,1,828.24,108,49,NA,fp7bef
5,33,FIELD,REL,b,4.189108375,5.35321928,1,834.2,109,32,0.284884024,fp7bef
5,33,SPIFT,NONCE,b,3.734240866,NA,1,1100.9,111,4,NA,fp7bef
5,33,DINTH,NONCE,r,4.870998895,NA,1,849.3599999999999,115,13,NA,fp7bef
6,31,BLOOD,REL,r,3.147773871,5.105996143,1,582.65,1,36,0.229315858,tted8d
6,31,STUMP,UNREL,b,5.075778593,3.413519289,1,846.38,8,10,0.055355864,tted8d
6,31,YURFS,NONCE,r,3.672348826,NA,1,942.24,9,50,NA,tted8d
6,31,STAGE,REL,r,3.927682114,5.108336861,1,428.95,10,6,0.581022535,tted8d
6,31,PAPER,REL,r,4.33783738,5.230293913,1,642.5999999999999,11,30,0.359043466,tted8d
6,31,YULBS,NONCE,b,3.223196377,NA,1,785.8000000000001,12,47,NA,tted8d
6,31,GLOMP,NONCE,b,3.949644483,NA,1,736.4000000000001,16,41,NA,tted8d
6,31,POWER,REL,b,5.294762043,5.588746199,1,709.7,17,3,0.120705124,tted8d
6,31,BONUS,REL,r,5.005747312,4.515522967,1,408.65000000000003,18,18,0.125759944,tted8d
6,31,BOARD,REL,r,5.617442386,5.350430177,1,350,20,42,0.291918533,tted8d
6,31,BROOM,REL,b,4.064504628,3.354276001,1,803.1,21,27,0.363666985,tted8d
6,31,DOOPS,NONCE,b,2.794650654,NA,1,1142.8,28,23,NA,tted8d
6,31,WHEEL,REL,b,3.784228166,4.550270351,1,754,29,39,0.656811439,tted8d
6,31,DRAIN,REL,b,3.407217937,4.147611827,1,986.1,30,21,0.387145282,tted8d
6,31,GUEST,REL,r,2.442833304,4.677271228,1,334.34999999999997,32,60,0.469866532,tted8d
6,31,DWERT,NONCE,r,3.331052745,NA,1,1173,33,14,NA,tted8d
6,31,NIRCH,NONCE,b,3.827345184,NA,1,635.1,34,53,NA,tted8d
6,31,CADET,UNREL,r,4.054597373,3.463204461,1,891.7142857142857,35,1,0.239131041,tted8d
6,31,DAIRY,REL,b,2.459390987,4.20061812,1,742.1999999999999,36,57,0.241572992,tted8d
6,31,HORSE,REL,b,3.484128918,4.713931387,1,725.6,37,15,0.821285068,tted8d
6,31,SHARK,UNREL,b,3.087558969,3.929769388,1,732.25,39,16,0.095724535,tted8d
6,31,ALARM,UNREL,r,3.659160937,4.273577104,1,638.2857142857143,40,49,0.146049347,tted8d
6,31,TUTOR,UNREL,r,3.001120593,3.930647709,1,985.2380952380952,48,43,0.092758339,tted8d
6,31,GLIRM,NONCE,r,4.189108375,NA,1,943.44,50,32,NA,tted8d
6,31,STUNT,UNREL,b,3.734240866,3.567262547,1,1364.8129999999999,51,4,0.101478916,tted8d
6,31,PIVED,NONCE,r,3.603458685,NA,1,822.24,54,8,NA,tted8d
6,31,SALON,UNREL,r,3.499480888,3.900709192,1,1129.047619047619,55,37,0.110577655,tted8d
6,31,NULSE,NONCE,b,3.590390365,NA,1,784.8000000000001,56,17,NA,tted8d
6,31,ROKES,NONCE,r,4.271877839,NA,1,1031.1599999999999,58,44,NA,tted8d
6,31,PLANT,REL,b,3.541556206,5.026411782,1,985,59,45,0.501397476,tted8d
6,31,STAFF,REL,r,4.460251055,5.302678942,1,368.3,60,12,0.365606156,tted8d
6,31,BRIDE,UNREL,r,3.570916411,3.990911755,1,669.6190476190475,61,55,0.039438298,tted8d
6,31,QUIBS,NONCE,r,4.104575844,NA,1,1333.2,62,2,NA,tted8d
6,31,FLERG,NONCE,b,4.382518198,NA,1,621.8000000000001,64,11,NA,tted8d
6,31,BESKS,NONCE,r,3.485497116,NA,1,1039.56,66,26,NA,tted8d
6,31,GELKS,NONCE,b,3.583221526,NA,1,817.3000000000001,67,35,NA,tted8d
6,31,BASIL,UNREL,b,3.296803811,3.689125491,1,890.315,74,40,0.137191468,tted8d
6,31,STEEL,REL,b,4.528661332,4.773777517,1,751,76,33,0.358177388,tted8d
6,31,MODEM,UNREL,r,3.96226586,3.755853299,1,850.7619047619047,78,25,0.012195619,tted8d
6,31,YOUTH,UNREL,r,4.216284055,4.938331983,1,615.5238095238094,82,31,0.110552167,tted8d
6,31,ESSAY,REL,r,4.78505379,4.668647528,1,397.15,83,24,0.229238232,tted8d
6,31,BRURL,NONCE,r,4.166816978,NA,1,1190.04,86,20,NA,tted8d
6,31,GRAPH,REL,r,4.223689768,4.176312386,1,350.85,91,48,0.141363369,tted8d
6,31,MAFTS,NONCE,r,3.671694735,NA,1,939.1199999999999,94,38,NA,tted8d
6,31,OLIVE,UNREL,r,4.870998895,4.138893633,1,733.1428571428572,95,13,0.046719131,tted8d
6,31,STAMP,REL,r,2.954817735,4.107372874,1,359.9,96,54,0.44493658,tted8d
6,31,GELPS,NONCE,r,4.438372257,NA,1,864.2399999999999,97,56,NA,tted8d
6,31,INDEX,UNREL,b,3.571960851,4.74479794,1,749.319,98,28,0.069182129,tted8d
6,31,SLANG,UNREL,r,4.141850119,3.39835149,1,938.0952380952381,101,7,0.049636608,tted8d
6,31,NERNS,NONCE,b,3.563555912,NA,1,803,102,59,NA,tted8d
6,31,DROWL,NONCE,b,2.935126552,NA,1,1118.8,103,29,NA,tted8d
6,31,TOWER,REL,b,4.257983625,4.604307777,1,729.8,107,51,0.65194005,tted8d
6,31,PIANO,UNREL,r,3.496627781,4.453364025,1,668.0952380952381,110,19,0.066770659,tted8d
6,31,BRICK,REL,b,4.042783642,4.255257406,1,835.9,111,9,0.647438362,tted8d
6,31,BERRY,UNREL,b,4.510372539,3.930373842,1,675.791,112,58,0.410938427,tted8d
6,31,RADAR,UNREL,b,2.761427779,4.205675385,1,900.516,113,34,0.042865261,tted8d
6,31,TRUNK,UNREL,b,3.681799882,4.022054607,1,1196.6480000000001,119,46,-3.5711e-5,tted8d
6,31,DIRPS,NONCE,b,3.316655402,NA,1,1767.4,120,5,NA,tted8d
7,34,SALAD,UNREL,r,3.407217937,4.075985546,1,827.2380952380952,3,21,0.086324713,tvgr7f
7,34,JESKS,NONCE,b,3.496627781,NA,1,1322.9,4,19,NA,tvgr7f
7,34,BACON,REL,b,3.590390365,3.975196615,1,701,6,17,0.581803613,tvgr7f
7,34,MUSIC,REL,b,3.949644483,5.474563669,1,895.1,7,41,0.500925534,tvgr7f
7,34,GLAFT,NONCE,r,4.510372539,NA,1,1129.2,8,58,NA,tvgr7f
7,34,MELON,UNREL,r,5.294762043,3.192247125,1,705.3333333333334,9,3,0.029311037,tvgr7f
7,34,PEARL,UNREL,r,3.784228166,4.091225612,1,661.4285714285714,10,39,0.144013775,tvgr7f
7,34,GRANT,REL,b,2.935126552,4.850225334,1,901.4,18,29,0.693079255,tvgr7f
7,34,FIGHT,REL,r,3.603458685,4.976780877,1,287.3,20,8,0.546862958,tvgr7f
7,34,MARCH,REL,r,4.271877839,5.33947384,1,359,28,44,0.149010967,tvgr7f
7,34,MERCY,UNREL,b,2.954817735,4.227867511,1,910.111,30,54,0.200530544,tvgr7f
7,34,TORSO,UNREL,r,4.042783642,3.489874614,1,636.9523809523808,31,9,0.091146301,tvgr7f
7,34,PEACE,REL,r,4.166816978,5.000544983,1,325.95000000000005,32,20,0.399338922,tvgr7f
7,34,GRAPE,UNREL,r,3.484128918,3.75194906,1,629.3333333333334,38,15,0.044440644,tvgr7f
7,34,STOUT,UNREL,b,3.927682114,3.549681245,1,923.241,39,6,0.073515012,tvgr7f
7,34,NYLON,UNREL,r,4.257983625,3.681235784,1,623.9047619047619,40,51,0.023932131,tvgr7f
7,34,WOOSE,NONCE,b,4.054597373,NA,1,1194.1999999999998,41,1,NA,tvgr7f
7,34,TRAIN,REL,b,3.563555912,4.884322105,1,728.9,42,59,0.704060439,tvgr7f
7,34,ONION,UNREL,b,3.147773871,3.874821707,1,758.3080000000001,44,36,0.024638016,tvgr7f
7,34,SWILK,NONCE,r,3.571960851,NA,1,902.1600000000001,46,28,NA,tvgr7f
7,34,CURRY,UNREL,r,4.528661332,3.821678729,1,588.5714285714286,50,33,0.096814912,tvgr7f
7,34,SMILE,REL,b,3.827345184,4.538804727,1,582.5,55,53,0.356322599,tvgr7f
7,34,BIRTH,REL,r,3.331052745,4.789408745,1,289.3,56,14,0.686182952,tvgr7f
7,34,AISLE,UNREL,b,4.33783738,3.65360327,1,652.157,59,30,0.040631859,tvgr7f
7,34,SWEFT,NONCE,b,3.659160937,NA,1,715.7,60,49,NA,tvgr7f
7,34,SPOON,UNREL,b,4.223689768,3.744015211,1,650.945,62,48,0.030983292,tvgr7f
7,34,WROSH,NONCE,b,3.001120593,NA,1,740.5,63,43,NA,tvgr7f
7,34,JULTS,NONCE,r,3.087558969,NA,1,967.68,65,16,NA,tvgr7f
7,34,PLANE,REL,b,4.382518198,4.578922163,1,755.3,67,11,0.297423709,tvgr7f
7,34,VECTS,NONCE,r,3.651952199,NA,1,872.6399999999999,68,22,NA,tvgr7f
7,34,WRUNK,NONCE,r,3.296803811,NA,1,752.88,70,40,NA,tvgr7f
7,34,POUCH,UNREL,b,5.005747312,3.519602188,1,821.837,72,18,0.028582389,tvgr7f
7,34,PARTY,REL,r,4.104575844,5.35027968,1,556,74,2,0.643797235,tvgr7f
7,34,OCEAN,REL,r,3.671694735,4.714494586,1,639.3,75,38,0.436893167,tvgr7f
7,34,GARGE,NONCE,b,3.96226586,NA,1,1648.9,76,25,NA,tvgr7f
7,34,SMECK,NONCE,b,3.570916411,NA,1,679.3000000000001,77,55,NA,tvgr7f
7,34,KNURN,NONCE,b,4.216284055,NA,1,660.9000000000001,80,31,NA,tvgr7f
7,34,GNISP,NONCE,r,3.681799882,NA,1,713.4,81,46,NA,tvgr7f
7,34,FAITH,REL,r,3.485497116,4.909946679,1,580.35,82,26,0.387246038,tvgr7f
7,34,WHEAT,UNREL,b,5.617442386,4.199949835,1,1311.182,83,42,0.072750297,tvgr7f
7,34,SPIFT,NONCE,r,3.734240866,NA,1,917.4,86,4,NA,tvgr7f
7,34,DWEED,NONCE,r,3.506495478,NA,1,737.64,91,52,NA,tvgr7f
7,34,TRADE,REL,b,3.316655402,5.154909161,1,679.1,92,5,0.538092297,tvgr7f
7,34,ACORN,UNREL,b,4.460251055,3.430462728,1,1091.002,93,12,0.053296581,tvgr7f
7,34,TROLF,NONCE,b,4.141850119,NA,1,702.3000000000001,96,7,NA,tvgr7f
7,34,ALIEN,UNREL,r,4.064504628,4.254807488,1,614.2857142857142,97,27,0.128075313,tvgr7f
7,34,TIRTH,NONCE,r,5.075778593,NA,1,817.92,99,10,NA,tvgr7f
7,34,MODEL,REL,b,3.223196377,5.311004219,1,762.3,100,47,0.31482591,tvgr7f
7,34,GENCE,NONCE,r,2.761427779,NA,1,959.8800000000001,102,34,NA,tvgr7f
7,34,LAUGH,REL,r,3.672348826,4.316053735,1,414.75,103,50,0.419525812,tvgr7f
7,34,FLOVE,NONCE,b,3.499480888,NA,1,813.6999999999999,105,37,NA,tvgr7f
7,34,PIPER,UNREL,b,2.442833304,3.583693845,1,903.647,106,60,0.332504352,tvgr7f
7,34,BINGO,UNREL,b,4.78505379,3.844663502,1,759.722,108,24,0.042999458,tvgr7f
7,34,LORRY,REL,b,2.794650654,3.193575913,1,653.6999999999999,109,23,0.504048878,tvgr7f
7,34,DISCO,UNREL,r,3.541556206,3.655557686,1,795.2380952380952,114,45,0.069841755,tvgr7f
7,34,DINTH,NONCE,b,4.870998895,NA,1,601.6,116,13,NA,tvgr7f
7,34,SPORT,REL,b,3.583221526,4.682414816,1,901.5,117,35,0.345946689,tvgr7f
7,34,VOICE,REL,r,4.438372257,5.048236364,1,458.9,118,56,0.43050393,tvgr7f
7,34,TIGER,UNREL,r,2.459390987,4.142626275,1,810.4761904761905,119,57,0.34483263,tvgr7f
8,35,SPORT,REL,b,3.583221526,4.682414816,1,911.1,4,35,0.345946689,wpmhav
8,35,POUCH,UNREL,b,5.005747312,3.519602188,1,1172.307,5,18,0.028582389,wpmhav
8,35,VOICE,REL,r,4.438372257,5.048236364,1,497.05,6,56,0.43050393,wpmhav
8,35,OCEAN,REL,r,3.671694735,4.714494586,1,295.54999999999995,10,38,0.436893167,wpmhav
8,35,MARCH,REL,r,4.271877839,5.33947384,1,324.15,11,44,0.149010967,wpmhav
8,35,FAITH,REL,r,3.485497116,4.909946679,1,269.4,13,26,0.387246038,wpmhav
8,35,TRADE,REL,b,3.316655402,5.154909161,1,628,15,5,0.538092297,wpmhav
8,35,SMILE,REL,b,3.827345184,4.538804727,1,610.4000000000001,16,53,0.356322599,wpmhav
8,35,LORRY,REL,b,2.794650654,3.193575913,1,639.5,17,23,0.504048878,wpmhav
8,35,LAUGH,REL,r,3.672348826,4.316053735,1,330.79999999999995,18,50,0.419525812,wpmhav
8,35,JULTS,NONCE,r,3.087558969,NA,1,910.0799999999999,19,16,NA,wpmhav
8,35,MODEL,REL,b,3.223196377,5.311004219,1,691.9,21,47,0.31482591,wpmhav
8,35,GRAPE,UNREL,r,3.484128918,3.75194906,1,1191.2380952380952,22,15,0.044440644,wpmhav
8,35,MERCY,UNREL,b,2.954817735,4.227867511,1,783.6590000000001,23,54,0.200530544,wpmhav
8,35,PIPER,UNREL,b,2.442833304,3.583693845,1,672.155,26,60,0.332504352,wpmhav
8,35,GARGE,NONCE,b,3.96226586,NA,1,837.4,29,25,NA,wpmhav
8,35,TORSO,UNREL,r,4.042783642,3.489874614,1,626.2857142857142,30,9,0.091146301,wpmhav
8,35,WROSH,NONCE,b,3.001120593,NA,1,1033.1999999999998,31,43,NA,wpmhav
8,35,SWEFT,NONCE,b,3.659160937,NA,1,1080.9,32,49,NA,wpmhav
8,35,SPOON,UNREL,b,4.223689768,3.744015211,1,706.697,35,48,0.030983292,wpmhav
8,35,WRUNK,NONCE,r,3.296803811,NA,1,925.1999999999999,36,40,NA,wpmhav
8,35,TRAIN,REL,b,3.563555912,4.884322105,1,586,37,59,0.704060439,wpmhav
8,35,SWILK,NONCE,r,3.571960851,NA,1,957,39,28,NA,wpmhav
8,35,TIGER,UNREL,r,2.459390987,4.142626275,1,605.4285714285714,40,57,0.34483263,wpmhav
8,35,ACORN,UNREL,b,4.460251055,3.430462728,1,899.203,41,12,0.053296581,wpmhav
8,35,PEARL,UNREL,r,3.784228166,4.091225612,1,619.4285714285713,42,39,0.144013775,wpmhav
8,35,PEACE,REL,r,4.166816978,5.000544983,1,311.7,46,20,0.399338922,wpmhav
8,35,CURRY,UNREL,r,4.528661332,3.821678729,1,617.5238095238095,47,33,0.096814912,wpmhav
8,35,BACON,REL,b,3.590390365,3.975196615,1,598,49,17,0.581803613,wpmhav
8,35,GNISP,NONCE,r,3.681799882,NA,1,668.03999999999985,51,46,NA,wpmhav
8,35,NYLON,UNREL,r,4.257983625,3.681235784,1,743.047619047619,53,51,0.023932131,wpmhav
8,35,MELON,UNREL,r,5.294762043,3.192247125,1,558.6666666666666,56,3,0.029311037,wpmhav
8,35,ONION,UNREL,b,3.147773871,3.874821707,1,571.155,57,36,0.024638016,wpmhav
8,35,FIGHT,REL,r,3.603458685,4.976780877,1,441.35,58,8,0.546862958,wpmhav
8,35,JESKS,NONCE,b,3.496627781,NA,1,779.1,60,19,NA,wpmhav
8,35,GENCE,NONCE,r,2.761427779,NA,1,1003.8,65,34,NA,wpmhav
8,35,GRANT,REL,b,2.935126552,4.850225334,1,762.9,66,29,0.693079255,wpmhav
8,35,MUSIC,REL,b,3.949644483,5.474563669,1,551.5,69,41,0.500925534,wpmhav
8,35,DINTH,NONCE,b,4.870998895,NA,1,618.9,74,13,NA,wpmhav
8,35,FIELD,REL,r,4.189108375,5.35321928,1,341.55,76,32,0.284884024,wpmhav
8,35,KNURN,NONCE,b,4.216284055,NA,1,674,80,31,NA,wpmhav
8,35,SALAD,UNREL,r,3.407217937,4.075985546,1,788.3809523809523,83,21,0.086324713,wpmhav
8,35,DISCO,UNREL,r,3.541556206,3.655557686,1,564.4761904761905,87,45,0.069841755,wpmhav
8,35,BIRTH,REL,r,3.331052745,4.789408745,1,312.05,90,14,0.686182952,wpmhav
8,35,VECTS,NONCE,r,3.651952199,NA,1,932.64,91,22,NA,wpmhav
8,35,TIRTH,NONCE,r,5.075778593,NA,1,816.8399999999999,93,10,NA,wpmhav
8,35,PLANE,REL,b,4.382518198,4.578922163,1,646.5,97,11,0.297423709,wpmhav
8,35,SPIFT,NONCE,r,3.734240866,NA,1,833.4,99,4,NA,wpmhav
8,35,WOOSE,NONCE,b,4.054597373,NA,1,776.4,102,1,NA,wpmhav
8,35,TROLF,NONCE,b,4.141850119,NA,1,661.2,103,7,NA,wpmhav
8,35,STOUT,UNREL,b,3.927682114,3.549681245,1,2330.9790000000003,104,6,0.073515012,wpmhav
8,35,PARTY,REL,r,4.104575844,5.35027968,1,280.45,109,2,0.643797235,wpmhav
8,35,AISLE,UNREL,b,4.33783738,3.65360327,1,792.345,110,30,0.040631859,wpmhav
8,35,ALIEN,UNREL,r,4.064504628,4.254807488,1,537.7142857142857,112,27,0.128075313,wpmhav
8,35,FLOVE,NONCE,b,3.499480888,NA,1,760.9,113,37,NA,wpmhav
8,35,WHEAT,UNREL,b,5.617442386,4.199949835,1,647.41,116,42,0.072750297,wpmhav
8,35,BINGO,UNREL,b,4.78505379,3.844663502,1,597.112,117,24,0.042999458,wpmhav
8,35,SMECK,NONCE,b,3.570916411,NA,1,626.6,118,55,NA,wpmhav
8,35,DWEED,NONCE,r,3.506495478,NA,1,756.6,119,52,NA,wpmhav
9,29,SALAD,UNREL,r,3.407217937,4.075985546,1,588.7619047619047,1,21,0.086324713,fkhera
9,29,VOICE,REL,r,4.438372257,5.048236364,1,302.25,2,56,0.43050393,fkhera
9,29,SWILK,NONCE,r,3.571960851,NA,1,1021.1999999999999,3,28,NA,fkhera
9,29,JULTS,NONCE,r,3.087558969,NA,1,916.92,5,16,NA,fkhera
9,29,SMECK,NONCE,b,3.570916411,NA,1,719.4000000000001,6,55,NA,fkhera
9,29,GNISP,NONCE,r,3.681799882,NA,1,866.8800000000001,16,46,NA,fkhera
9,29,PLANE,REL,b,4.382518198,4.578922163,1,558.2,19,11,0.297423709,fkhera
9,29,TROLF,NONCE,b,4.141850119,NA,1,685.8,21,7,NA,fkhera
9,29,STOUT,UNREL,b,3.927682114,3.549681245,1,459.146,24,6,0.073515012,fkhera
9,29,MELON,UNREL,r,5.294762043,3.192247125,1,540.1904761904763,25,3,0.029311037,fkhera
9,29,PIPER,UNREL,b,2.442833304,3.583693845,1,582.8709999999999,26,60,0.332504352,fkhera
9,29,LORRY,REL,b,2.794650654,3.193575913,1,568.3000000000001,28,23,0.504048878,fkhera
9,29,BINGO,UNREL,b,4.78505379,3.844663502,1,608.929,29,24,0.042999458,fkhera
9,29,TIRTH,NONCE,r,5.075778593,NA,1,987.12,31,10,NA,fkhera
9,29,WHEAT,UNREL,b,5.617442386,4.199949835,1,581.4570000000001,35,42,0.072750297,fkhera
9,29,WOOSE,NONCE,b,4.054597373,NA,1,761.1,37,1,NA,fkhera
9,29,TRAIN,REL,b,3.563555912,4.884322105,1,628.8000000000001,38,59,0.704060439,fkhera
9,29,SMILE,REL,b,3.827345184,4.538804727,1,601.1,39,53,0.356322599,fkhera
9,29,SWEFT,NONCE,b,3.659160937,NA,1,922.8,40,49,NA,fkhera
9,29,GLAFT,NONCE,r,4.510372539,NA,1,846.4799999999999,41,58,NA,fkhera
9,29,BACON,REL,b,3.590390365,3.975196615,1,528.5,45,17,0.581803613,fkhera
9,29,POUCH,UNREL,b,5.005747312,3.519602188,1,736.29,46,18,0.028582389,fkhera
9,29,PEACE,REL,r,4.166816978,5.000544983,1,282.1,47,20,0.399338922,fkhera
9,29,WRUNK,NONCE,r,3.296803811,NA,1,916.0799999999999,49,40,NA,fkhera
9,29,JESKS,NONCE,b,3.496627781,NA,1,825.2,51,19,NA,fkhera
9,29,FIELD,REL,r,4.189108375,5.35321928,1,310.45,53,32,0.284884024,fkhera
9,29,MODEL,REL,b,3.223196377,5.311004219,1,632.1,54,47,0.31482591,fkhera
9,29,MARCH,REL,r,4.271877839,5.33947384,1,284.5,56,44,0.149010967,fkhera
9,29,GENCE,NONCE,r,2.761427779,NA,1,1014.2399999999999,61,34,NA,fkhera
9,29,NYLON,UNREL,r,4.257983625,3.681235784,1,835.3333333333334,62,51,0.023932131,fkhera
9,29,GRAPE,UNREL,r,3.484128918,3.75194906,1,560.7619047619047,65,15,0.044440644,fkhera
9,29,ONION,UNREL,b,3.147773871,3.874821707,1,637.0070000000001,68,36,0.024638016,fkhera
9,29,LAUGH,REL,r,3.672348826,4.316053735,1,310.55,69,50,0.419525812,fkhera
9,29,SPORT,REL,b,3.583221526,4.682414816,1,555.6999999999999,72,35,0.345946689,fkhera
9,29,ACORN,UNREL,b,4.460251055,3.430462728,1,1503.991,75,12,0.053296581,fkhera
9,29,FLOVE,NONCE,b,3.499480888,NA,1,1277.4,77,37,NA,fkhera
9,29,ALIEN,UNREL,r,4.064504628,4.254807488,1,632.4761904761905,80,27,0.128075313,fkhera
9,29,TORSO,UNREL,r,4.042783642,3.489874614,1,766.4761904761904,81,9,0.091146301,fkhera
9,29,WROSH,NONCE,b,3.001120593,NA,1,1030.3,83,43,NA,fkhera
9,29,BIRTH,REL,r,3.331052745,4.789408745,1,304.05,84,14,0.686182952,fkhera
9,29,PEARL,UNREL,r,3.784228166,4.091225612,1,577.1428571428571,87,39,0.144013775,fkhera
9,29,MUSIC,REL,b,3.949644483,5.474563669,1,619.7,89,41,0.500925534,fkhera
9,29,DINTH,NONCE,b,4.870998895,NA,1,1119.6,90,13,NA,fkhera
9,29,SPOON,UNREL,b,4.223689768,3.744015211,1,595.1930000000001,91,48,0.030983292,fkhera
9,29,VECTS,NONCE,r,3.651952199,NA,1,1916.6399999999999,95,22,NA,fkhera
9,29,OCEAN,REL,r,3.671694735,4.714494586,1,270.34999999999997,96,38,0.436893167,fkhera
9,29,PARTY,REL,r,4.104575844,5.35027968,1,310.8,99,2,0.643797235,fkhera
9,29,MERCY,UNREL,b,2.954817735,4.227867511,1,576.912,103,54,0.200530544,fkhera
9,29,GRANT,REL,b,2.935126552,4.850225334,1,636.9,104,29,0.693079255,fkhera
9,29,TRADE,REL,b,3.316655402,5.154909161,1,559.9,105,5,0.538092297,fkhera
9,29,DWEED,NONCE,r,3.506495478,NA,1,1096.2,108,52,NA,fkhera
9,29,AISLE,UNREL,b,4.33783738,3.65360327,1,664.681,109,30,0.040631859,fkhera
9,29,CURRY,UNREL,r,4.528661332,3.821678729,1,545.047619047619,112,33,0.096814912,fkhera
9,29,SPIFT,NONCE,r,3.734240866,NA,1,1290.24,114,4,NA,fkhera
9,29,FIGHT,REL,r,3.603458685,4.976780877,1,294.09999999999997,116,8,0.546862958,fkhera
9,29,KNURN,NONCE,b,4.216284055,NA,1,772,117,31,NA,fkhera
9,29,FAITH,REL,r,3.485497116,4.909946679,1,278.3,118,26,0.387246038,fkhera
9,29,DISCO,UNREL,r,3.541556206,3.655557686,1,572.1904761904761,119,45,0.069841755,fkhera
9,29,TIGER,UNREL,r,2.459390987,4.142626275,1,620.5714285714284,120,57,0.34483263,fkhera
10,29,MODEM,UNREL,r,3.96226586,3.755853299,1,1508.2857142857142,4,25,0.012195619,r5yzmc
10,29,STAGE,REL,r,3.927682114,5.108336861,1,541.7,5,6,0.581022535,r5yzmc
10,29,NERNS,NONCE,b,3.563555912,NA,1,1367,6,59,NA,r5yzmc
10,29,BRICK,REL,b,4.042783642,4.255257406,1,1150.3000000000002,7,9,0.647438362,r5yzmc
10,29,BONUS,REL,r,5.005747312,4.515522967,1,750.15,8,18,0.125759944,r5yzmc
10,29,BERRY,UNREL,b,4.510372539,3.930373842,1,1145.5420000000001,9,58,0.410938427,r5yzmc
10,29,PIANO,UNREL,r,3.496627781,4.453364025,1,904.8571428571429,10,19,0.066770659,r5yzmc
10,29,TUTOR,UNREL,r,3.001120593,3.930647709,1,1105.8095238095236,11,43,0.092758339,r5yzmc
10,29,BLOOD,REL,r,3.147773871,5.105996143,1,492.05,16,36,0.229315858,r5yzmc
10,29,YOUTH,UNREL,r,4.216284055,4.938331983,1,1032.3809523809523,17,31,0.110552167,r5yzmc
10,29,YULBS,NONCE,b,3.223196377,NA,1,1032.8,18,47,NA,r5yzmc
10,29,SHARK,UNREL,b,3.087558969,3.929769388,1,976.8720000000001,21,16,0.095724535,r5yzmc
10,29,PLANT,REL,b,3.541556206,5.026411782,1,924.1,24,45,0.501397476,r5yzmc
10,29,PIVED,NONCE,r,3.603458685,NA,1,1481.04,25,8,NA,r5yzmc
10,29,BESKS,NONCE,r,3.485497116,NA,1,1180.44,27,26,NA,r5yzmc
10,29,BASIL,UNREL,b,3.296803811,3.689125491,1,977.175,28,40,0.137191468,r5yzmc
10,29,FLERG,NONCE,b,4.382518198,NA,1,933.5,33,11,NA,r5yzmc
10,29,YURFS,NONCE,r,3.672348826,NA,1,1020.72,35,50,NA,r5yzmc
10,29,ROKES,NONCE,r,4.271877839,NA,1,960.5999999999999,36,44,NA,r5yzmc
10,29,NULSE,NONCE,b,3.590390365,NA,1,827.0999999999999,40,17,NA,r5yzmc
10,29,STUNT,UNREL,b,3.734240866,3.567262547,1,1179.074,42,4,0.101478916,r5yzmc
10,29,TOWER,REL,b,4.257983625,4.604307777,1,900.5999999999999,43,51,0.65194005,r5yzmc
10,29,STEEL,REL,b,4.528661332,4.773777517,1,950.7,46,33,0.358177388,r5yzmc
10,29,SLANG,UNREL,r,4.141850119,3.39835149,1,1191.0476190476188,48,7,0.049636608,r5yzmc
10,29,GELKS,NONCE,b,3.583221526,NA,1,800.4,49,35,NA,r5yzmc
10,29,DROWL,NONCE,b,2.935126552,NA,1,1737.9,50,29,NA,r5yzmc
10,29,GRAPH,REL,r,4.223689768,4.176312386,1,450.29999999999995,55,48,0.141363369,r5yzmc
10,29,NIRCH,NONCE,b,3.827345184,NA,1,800.1,58,53,NA,r5yzmc
10,29,DOOPS,NONCE,b,2.794650654,NA,1,933.5,66,23,NA,r5yzmc
10,29,BRURL,NONCE,r,4.166816978,NA,1,1459.9199999999998,67,20,NA,r5yzmc
10,29,DRAIN,REL,b,3.407217937,4.147611827,1,866.6,69,21,0.387145282,r5yzmc
10,29,STAMP,REL,r,2.954817735,4.107372874,1,441.90000000000003,72,54,0.44493658,r5yzmc
10,29,BROOM,REL,b,4.064504628,3.354276001,1,833.4,73,27,0.363666985,r5yzmc
10,29,OLIVE,UNREL,r,4.870998895,4.138893633,1,810.0952380952381,76,13,0.046719131,r5yzmc
10,29,PAPER,REL,r,4.33783738,5.230293913,1,358.54999999999995,77,30,0.359043466,r5yzmc
10,29,QUIBS,NONCE,r,4.104575844,NA,1,780.24,78,2,NA,r5yzmc
10,29,WHEEL,REL,b,3.784228166,4.550270351,1,757.4,79,39,0.656811439,r5yzmc
10,29,DIRPS,NONCE,b,3.316655402,NA,1,717.3000000000001,80,5,NA,r5yzmc
10,29,ALARM,UNREL,r,3.659160937,4.273577104,1,746.6666666666666,82,49,0.146049347,r5yzmc
10,29,INDEX,UNREL,b,3.571960851,4.74479794,1,684.679,85,28,0.069182129,r5yzmc
10,29,HORSE,REL,b,3.484128918,4.713931387,1,851.1,89,15,0.821285068,r5yzmc
10,29,TRUNK,UNREL,b,3.681799882,4.022054607,1,909.505,90,46,-3.5711e-5,r5yzmc
10,29,GLIRM,NONCE,r,4.189108375,NA,1,900.2399999999999,91,32,NA,r5yzmc
10,29,STUMP,UNREL,b,5.075778593,3.413519289,1,859.2070000000001,93,10,0.055355864,r5yzmc
10,29,GLOBE,UNREL,b,3.506495478,4.416076472,1,708.7170000000001,95,52,0.282091996,r5yzmc
10,29,GUEST,REL,r,2.442833304,4.677271228,1,325,98,60,0.469866532,r5yzmc
10,29,GELPS,NONCE,r,4.438372257,NA,1,980.64,101,56,NA,r5yzmc
10,29,RADAR,UNREL,b,2.761427779,4.205675385,1,892.941,102,34,0.042865261,r5yzmc
10,29,BRIDE,UNREL,r,3.570916411,3.990911755,1,746.4761904761905,103,55,0.039438298,r5yzmc
10,29,SALON,UNREL,r,3.499480888,3.900709192,1,825.8095238095239,104,37,0.110577655,r5yzmc
10,29,GLOMP,NONCE,b,3.949644483,NA,1,750.8000000000001,105,41,NA,r5yzmc
10,29,BOARD,REL,r,5.617442386,5.350430177,1,341.84999999999997,106,42,0.291918533,r5yzmc
10,29,MAFTS,NONCE,r,3.671694735,NA,1,860.16,107,38,NA,r5yzmc
10,29,POWER,REL,b,5.294762043,5.588746199,1,633.8000000000001,108,3,0.120705124,r5yzmc
10,29,DWERT,NONCE,r,3.331052745,NA,1,841.0799999999999,109,14,NA,r5yzmc
10,29,ESSAY,REL,r,4.78505379,4.668647528,1,400.5,112,24,0.229238232,r5yzmc
10,29,TRIBE,UNREL,b,3.651952199,4.189781038,1,738.4110000000001,117,22,0.169582503,r5yzmc
10,29,DAIRY,REL,b,2.459390987,4.20061812,1,654.6999999999999,119,57,0.241572992,r5yzmc
10,29,STAFF,REL,r,4.460251055,5.302678942,1,390,120,12,0.365606156,r5yzmc
11,22,STUNT,UNREL,b,3.734240866,3.567262547,1,853.046,3,4,0.101478916,ef9ugh
11,22,SLANG,UNREL,r,4.141850119,3.39835149,1,682.4761904761905,4,7,0.049636608,ef9ugh
11,22,BRICK,REL,b,4.042783642,4.255257406,1,941.6,5,9,0.647438362,ef9ugh
11,22,GUEST,REL,r,2.442833304,4.677271228,1,476.35,10,60,0.469866532,ef9ugh
11,22,WHEEL,REL,b,3.784228166,4.550270351,1,1334.9,11,39,0.656811439,ef9ugh
11,22,ESSAY,REL,r,4.78505379,4.668647528,1,384,13,24,0.229238232,ef9ugh
11,22,RADAR,UNREL,b,2.761427779,4.205675385,1,908.091,14,34,0.042865261,ef9ugh
11,22,BASIL,UNREL,b,3.296803811,3.689125491,1,859.611,15,40,0.137191468,ef9ugh
11,22,TUTOR,UNREL,r,3.001120593,3.930647709,1,858.1904761904761,19,43,0.092758339,ef9ugh
11,22,POWER,REL,b,5.294762043,5.588746199,1,883.4,22,3,0.120705124,ef9ugh
11,22,DOOPS,NONCE,b,2.794650654,NA,1,1251,23,23,NA,ef9ugh
11,22,BRIDE,UNREL,r,3.570916411,3.990911755,1,918.8571428571428,24,55,0.039438298,ef9ugh
11,22,GRAPH,REL,r,4.223689768,4.176312386,1,450.4,25,48,0.141363369,ef9ugh
11,22,PAPER,REL,r,4.33783738,5.230293913,1,458.7,28,30,0.359043466,ef9ugh
11,22,HORSE,REL,b,3.484128918,4.713931387,1,851.8,29,15,0.821285068,ef9ugh
11,22,QUIBS,NONCE,r,4.104575844,NA,1,1325.5199999999998,31,2,NA,ef9ugh
11,22,TOWER,REL,b,4.257983625,4.604307777,1,871.8000000000001,32,51,0.65194005,ef9ugh
11,22,BONUS,REL,r,5.005747312,4.515522967,1,407.65000000000003,33,18,0.125759944,ef9ugh
11,22,CADET,UNREL,r,4.054597373,3.463204461,1,1143.142857142857,34,1,0.239131041,ef9ugh
11,22,PLANT,REL,b,3.541556206,5.026411782,1,967.2,35,45,0.501397476,ef9ugh
11,22,STAGE,REL,r,3.927682114,5.108336861,1,466.4,37,6,0.581022535,ef9ugh
11,22,NERNS,NONCE,b,3.563555912,NA,1,1021.5,38,59,NA,ef9ugh
11,22,STAMP,REL,r,2.954817735,4.107372874,1,401.1,40,54,0.44493658,ef9ugh
11,22,SHARK,UNREL,b,3.087558969,3.929769388,1,910.7170000000001,41,16,0.095724535,ef9ugh
11,22,ALARM,UNREL,r,3.659160937,4.273577104,1,905.5238095238094,42,49,0.146049347,ef9ugh
11,22,STUMP,UNREL,b,5.075778593,3.413519289,1,1043.7340000000002,43,10,0.055355864,ef9ugh
11,22,YULBS,NONCE,b,3.223196377,NA,1,1083.1,44,47,NA,ef9ugh
11,22,TRIBE,UNREL,b,3.651952199,4.189781038,1,1162.409,46,22,0.169582503,ef9ugh
11,22,DROWL,NONCE,b,2.935126552,NA,1,1057.1999999999998,49,29,NA,ef9ugh
11,22,BRURL,NONCE,r,4.166816978,NA,1,1120.2,51,20,NA,ef9ugh
11,22,YURFS,NONCE,r,3.672348826,NA,1,1126.32,54,50,NA,ef9ugh
11,22,BROOM,REL,b,4.064504628,3.354276001,1,983.3,55,27,0.363666985,ef9ugh
11,22,GLIRM,NONCE,r,4.189108375,NA,1,1099.92,57,32,NA,ef9ugh
11,22,SALON,UNREL,r,3.499480888,3.900709192,1,878.9523809523808,60,37,0.110577655,ef9ugh
11,22,STEEL,REL,b,4.528661332,4.773777517,1,984,61,33,0.358177388,ef9ugh
11,22,MAFTS,NONCE,r,3.671694735,NA,1,1146.24,65,38,NA,ef9ugh
11,22,FLERG,NONCE,b,4.382518198,NA,1,899.8000000000001,67,11,NA,ef9ugh
11,22,DIRPS,NONCE,b,3.316655402,NA,1,917.8,69,5,NA,ef9ugh
11,22,YOUTH,UNREL,r,4.216284055,4.938331983,1,1206.7619047619046,70,31,0.110552167,ef9ugh
11,22,OLIVE,UNREL,r,4.870998895,4.138893633,1,902.4761904761905,71,13,0.046719131,ef9ugh
11,22,GELKS,NONCE,b,3.583221526,NA,1,984.2,74,35,NA,ef9ugh
11,22,GLOMP,NONCE,b,3.949644483,NA,1,882.7,75,41,NA,ef9ugh
11,22,NULSE,NONCE,b,3.590390365,NA,1,915.7,76,17,NA,ef9ugh
11,22,STAFF,REL,r,4.460251055,5.302678942,1,433.45,77,12,0.365606156,ef9ugh
11,22,DWERT,NONCE,r,3.331052745,NA,1,1099.92,78,14,NA,ef9ugh
11,22,TRUNK,UNREL,b,3.681799882,4.022054607,1,1700.0320000000002,80,46,-3.5711e-5,ef9ugh
11,22,DRAIN,REL,b,3.407217937,4.147611827,1,1568,87,21,0.387145282,ef9ugh
11,22,GLOBE,UNREL,b,3.506495478,4.416076472,1,778.1039999999999,92,52,0.282091996,ef9ugh
11,22,NIRCH,NONCE,b,3.827345184,NA,1,716.4000000000001,93,53,NA,ef9ugh
11,22,PIANO,UNREL,r,3.496627781,4.453364025,1,730,94,19,0.066770659,ef9ugh
11,22,DAIRY,REL,b,2.459390987,4.20061812,1,721.0999999999999,95,57,0.241572992,ef9ugh
11,22,INDEX,UNREL,b,3.571960851,4.74479794,1,851.7330000000001,99,28,0.069182129,ef9ugh
11,22,BOARD,REL,r,5.617442386,5.350430177,1,433.5,103,42,0.291918533,ef9ugh
11,22,PIVED,NONCE,r,3.603458685,NA,1,1199.04,107,8,NA,ef9ugh
11,22,BESKS,NONCE,r,3.485497116,NA,1,1005.7199999999998,110,26,NA,ef9ugh
11,22,BLOOD,REL,r,3.147773871,5.105996143,1,569.1500000000001,117,36,0.229315858,ef9ugh
11,22,GELPS,NONCE,r,4.438372257,NA,1,1057.2,118,56,NA,ef9ugh
11,22,BERRY,UNREL,b,4.510372539,3.930373842,1,998.991,119,58,0.410938427,ef9ugh
11,22,ROKES,NONCE,r,4.271877839,NA,1,1241.1599999999999,120,44,NA,ef9ugh
12,33,TUTOR,UNREL,r,3.001120593,3.930647709,1,1387.5238095238096,1,43,0.092758339,2dt269
12,33,ROKES,NONCE,r,4.271877839,NA,1,1776.12,2,44,NA,2dt269
12,33,STUMP,UNREL,b,5.075778593,3.413519289,1,1208.6670000000001,4,10,0.055355864,2dt269
12,33,PIVED,NONCE,r,3.603458685,NA,1,1777.68,5,8,NA,2dt269
12,33,GELKS,NONCE,b,3.583221526,NA,1,1312.8,6,35,NA,2dt269
12,33,YULBS,NONCE,b,3.223196377,NA,1,1204,7,47,NA,2dt269
12,33,BRURL,NONCE,r,4.166816978,NA,1,2143.7999999999997,8,20,NA,2dt269
12,33,CADET,UNREL,r,4.054597373,3.463204461,1,1219.4285714285716,9,1,0.239131041,2dt269
12,33,STAGE,REL,r,3.927682114,5.108336861,1,465.9,11,6,0.581022535,2dt269
12,33,BRIDE,UNREL,r,3.570916411,3.990911755,1,860.6666666666666,14,55,0.039438298,2dt269
12,33,DOOPS,NONCE,b,2.794650654,NA,1,1012.1,19,23,NA,2dt269
12,33,WHEEL,REL,b,3.784228166,4.550270351,1,1434.1,20,39,0.656811439,2dt269
12,33,NIRCH,NONCE,b,3.827345184,NA,1,1219.5,22,53,NA,2dt269
12,33,STAMP,REL,r,2.954817735,4.107372874,1,542.3,23,54,0.44493658,2dt269
12,33,POWER,REL,b,5.294762043,5.588746199,1,899.7,24,3,0.120705124,2dt269
12,33,INDEX,UNREL,b,3.571960851,4.74479794,1,755.278,25,28,0.069182129,2dt269
12,33,BASIL,UNREL,b,3.296803811,3.689125491,1,755.076,28,40,0.137191468,2dt269
12,33,GRAPH,REL,r,4.223689768,4.176312386,1,388,33,48,0.141363369,2dt269
12,33,GLOBE,UNREL,b,3.506495478,4.416076472,1,790.022,34,52,0.282091996,2dt269
12,33,BONUS,REL,r,5.005747312,4.515522967,1,362.9,36,18,0.125759944,2dt269
12,33,GUEST,REL,r,2.442833304,4.677271228,1,364.09999999999997,41,60,0.469866532,2dt269
12,33,BESKS,NONCE,r,3.485497116,NA,1,1115.52,42,26,NA,2dt269
12,33,BLOOD,REL,r,3.147773871,5.105996143,1,441.95,43,36,0.229315858,2dt269
12,33,FLERG,NONCE,b,4.382518198,NA,1,815.4,45,11,NA,2dt269
12,33,NULSE,NONCE,b,3.590390365,NA,1,1098.4,46,17,NA,2dt269
12,33,TRUNK,UNREL,b,3.681799882,4.022054607,1,726.0889999999999,49,46,-3.5711e-5,2dt269
12,33,DWERT,NONCE,r,3.331052745,NA,1,1141.08,50,14,NA,2dt269
12,33,YURFS,NONCE,r,3.672348826,NA,1,999.7199999999998,52,50,NA,2dt269
12,33,MAFTS,NONCE,r,3.671694735,NA,1,844.44,55,38,NA,2dt269
12,33,BROOM,REL,b,4.064504628,3.354276001,1,732.1,56,27,0.363666985,2dt269
12,33,SLANG,UNREL,r,4.141850119,3.39835149,1,807.2380952380952,58,7,0.049636608,2dt269
12,33,STEEL,REL,b,4.528661332,4.773777517,1,697,60,33,0.358177388,2dt269
12,33,SALON,UNREL,r,3.499480888,3.900709192,1,646.6666666666666,61,37,0.110577655,2dt269
12,33,TRIBE,UNREL,b,3.651952199,4.189781038,1,635.3910000000001,63,22,0.169582503,2dt269
12,33,ALARM,UNREL,r,3.659160937,4.273577104,1,760.952380952381,65,49,0.146049347,2dt269
12,33,SHARK,UNREL,b,3.087558969,3.929769388,1,728.4119999999999,68,16,0.095724535,2dt269
12,33,GLOMP,NONCE,b,3.949644483,NA,1,738.7,69,41,NA,2dt269
12,33,OLIVE,UNREL,r,4.870998895,4.138893633,1,838.6666666666666,72,13,0.046719131,2dt269
12,33,MODEM,UNREL,r,3.96226586,3.755853299,1,671.047619047619,73,25,0.012195619,2dt269
12,33,NERNS,NONCE,b,3.563555912,NA,1,734,76,59,NA,2dt269
12,33,BRICK,REL,b,4.042783642,4.255257406,1,765.1,78,9,0.647438362,2dt269
12,33,ESSAY,REL,r,4.78505379,4.668647528,1,348.7,80,24,0.229238232,2dt269
12,33,GLIRM,NONCE,r,4.189108375,NA,1,1197.72,81,32,NA,2dt269
12,33,TOWER,REL,b,4.257983625,4.604307777,1,648.1,84,51,0.65194005,2dt269
12,33,PIANO,UNREL,r,3.496627781,4.453364025,1,648.6666666666666,88,19,0.066770659,2dt269
12,33,RADAR,UNREL,b,2.761427779,4.205675385,1,638.118,89,34,0.042865261,2dt269
12,33,YOUTH,UNREL,r,4.216284055,4.938331983,1,1573.3333333333333,91,31,0.110552167,2dt269
12,33,DIRPS,NONCE,b,3.316655402,NA,1,783.3,95,5,NA,2dt269
12,33,DAIRY,REL,b,2.459390987,4.20061812,1,949,96,57,0.241572992,2dt269
12,33,PLANT,REL,b,3.541556206,5.026411782,1,799.6999999999999,99,45,0.501397476,2dt269
12,33,BOARD,REL,r,5.617442386,5.350430177,1,440.59999999999997,101,42,0.291918533,2dt269
12,33,STUNT,UNREL,b,3.734240866,3.567262547,1,806.081,102,4,0.101478916,2dt269
12,33,STAFF,REL,r,4.460251055,5.302678942,1,340.6,103,12,0.365606156,2dt269
12,33,HORSE,REL,b,3.484128918,4.713931387,1,514.5,106,15,0.821285068,2dt269
12,33,PAPER,REL,r,4.33783738,5.230293913,1,359.70000000000005,110,30,0.359043466,2dt269
12,33,QUIBS,NONCE,r,4.104575844,NA,1,817.68,112,2,NA,2dt269
12,33,GELPS,NONCE,r,4.438372257,NA,1,1017.24,113,56,NA,2dt269
12,33,BERRY,UNREL,b,4.510372539,3.930373842,1,1143.926,114,58,0.410938427,2dt269
12,33,DROWL,NONCE,b,2.935126552,NA,1,536.5,115,29,NA,2dt269
12,33,DRAIN,REL,b,3.407217937,4.147611827,1,744.1999999999999,120,21,0.387145282,2dt269
13,31,FIGHT,REL,b,3.603458685,4.976780877,1,965.4,1,8,0.546862958,c3oian
13,31,ONION,UNREL,r,3.147773871,3.874821707,1,1346.2857142857142,2,36,0.024638016,c3oian
13,31,LAUGH,REL,b,3.672348826,4.316053735,1,758.5,3,50,0.419525812,c3oian
13,31,MARCH,REL,b,4.271877839,5.33947384,1,818.3000000000001,5,44,0.149010967,c3oian
13,31,LORRY,REL,r,2.794650654,3.193575913,1,367.25,6,23,0.504048878,c3oian
13,31,GRAPE,UNREL,b,3.484128918,3.75194906,1,840.623,7,15,0.044440644,c3oian
13,31,MERCY,UNREL,r,2.954817735,4.227867511,1,792.4761904761904,9,54,0.200530544,c3oian
13,31,WOOSE,NONCE,r,4.054597373,NA,1,1096.2,11,1,NA,c3oian
13,31,STOUT,UNREL,r,3.927682114,3.549681245,1,1233.9047619047617,16,6,0.073515012,c3oian
13,31,FIELD,REL,b,4.189108375,5.35321928,1,688.2,17,32,0.284884024,c3oian
13,31,SPIFT,NONCE,b,3.734240866,NA,1,1065.6,18,4,NA,c3oian
13,31,PLANE,REL,r,4.382518198,4.578922163,1,424.25,19,11,0.297423709,c3oian
13,31,GLAFT,NONCE,b,4.510372539,NA,1,830.5,23,58,NA,c3oian
13,31,CURRY,UNREL,b,4.528661332,3.821678729,1,960.005,24,33,0.096814912,c3oian
13,31,SMECK,NONCE,r,3.570916411,NA,1,912.84,27,55,NA,c3oian
13,31,SMILE,REL,r,3.827345184,4.538804727,1,476.45,28,53,0.356322599,c3oian
13,31,SALAD,UNREL,b,3.407217937,4.075985546,1,846.7840000000001,29,21,0.086324713,c3oian
13,31,GARGE,NONCE,r,3.96226586,NA,1,1644.7199999999998,31,25,NA,c3oian
13,31,PEARL,UNREL,b,3.784228166,4.091225612,1,869.711,32,39,0.144013775,c3oian
13,31,NYLON,UNREL,b,4.257983625,3.681235784,1,789.921,33,51,0.023932131,c3oian
13,31,PEACE,REL,b,4.166816978,5.000544983,1,710.9,35,20,0.399338922,c3oian
13,31,POUCH,UNREL,r,5.005747312,3.519602188,1,772.2857142857142,36,18,0.028582389,c3oian
13,31,TORSO,UNREL,b,4.042783642,3.489874614,1,810.2220000000001,40,9,0.091146301,c3oian
13,31,PIPER,UNREL,r,2.442833304,3.583693845,1,707.8095238095237,41,60,0.332504352,c3oian
13,31,GRANT,REL,r,2.935126552,4.850225334,1,380.09999999999997,42,29,0.693079255,c3oian
13,31,GENCE,NONCE,b,2.761427779,NA,1,835.7,44,34,NA,c3oian
13,31,GNISP,NONCE,b,3.681799882,NA,1,729.7,50,46,NA,c3oian
13,31,ACORN,UNREL,r,4.460251055,3.430462728,1,711.8095238095237,54,12,0.053296581,c3oian
13,31,OCEAN,REL,b,3.671694735,4.714494586,1,647.3,61,38,0.436893167,c3oian
13,31,FLOVE,NONCE,r,3.499480888,NA,1,901.4399999999999,62,37,NA,c3oian
13,31,TIGER,UNREL,b,2.459390987,4.142626275,1,802.95,64,57,0.34483263,c3oian
13,31,MELON,UNREL,b,5.294762043,3.192247125,1,713.0600000000001,65,3,0.029311037,c3oian
13,31,PARTY,REL,b,4.104575844,5.35027968,1,671.9000000000001,67,2,0.643797235,c3oian
13,31,VECTS,NONCE,b,3.651952199,NA,1,694.6,68,22,NA,c3oian
13,31,VOICE,REL,b,4.438372257,5.048236364,1,678,69,56,0.43050393,c3oian
13,31,BIRTH,REL,b,3.331052745,4.789408745,1,744.9,72,14,0.686182952,c3oian
13,31,KNURN,NONCE,r,4.216284055,NA,1,762.3599999999999,73,31,NA,c3oian
13,31,TRAIN,REL,r,3.563555912,4.884322105,1,357.15000000000003,74,59,0.704060439,c3oian
13,31,MUSIC,REL,r,3.949644483,5.474563669,1,301.95,76,41,0.500925534,c3oian
13,31,ALIEN,UNREL,b,4.064504628,4.254807488,1,805.071,84,27,0.128075313,c3oian
13,31,TRADE,REL,r,3.316655402,5.154909161,1,337.8,87,5,0.538092297,c3oian
13,31,DISCO,UNREL,b,3.541556206,3.655557686,1,682.558,89,45,0.069841755,c3oian
13,31,AISLE,UNREL,r,4.33783738,3.65360327,1,584.7619047619047,91,30,0.040631859,c3oian
13,31,SWILK,NONCE,b,3.571960851,NA,1,835.8,93,28,NA,c3oian
13,31,SWEFT,NONCE,r,3.659160937,NA,1,942.24,94,49,NA,c3oian
13,31,DWEED,NONCE,b,3.506495478,NA,1,625.9,96,52,NA,c3oian
13,31,WROSH,NONCE,r,3.001120593,NA,1,798.12,97,43,NA,c3oian
13,31,WRUNK,NONCE,b,3.296803811,NA,1,631.6,100,40,NA,c3oian
13,31,DINTH,NONCE,r,4.870998895,NA,1,776.88,101,13,NA,c3oian
13,31,MODEL,REL,r,3.223196377,5.311004219,1,352.65000000000003,103,47,0.31482591,c3oian
13,31,TROLF,NONCE,r,4.141850119,NA,1,798.12,104,7,NA,c3oian
13,31,JESKS,NONCE,r,3.496627781,NA,1,821.0400000000001,105,19,NA,c3oian
13,31,WHEAT,UNREL,r,5.617442386,4.199949835,1,715.8095238095239,107,42,0.072750297,c3oian
13,31,SPORT,REL,r,3.583221526,4.682414816,1,317.25,108,35,0.345946689,c3oian
13,31,BACON,REL,r,3.590390365,3.975196615,1,408.84999999999997,110,17,0.581803613,c3oian
13,31,FAITH,REL,b,3.485497116,4.909946679,1,718.0999999999999,114,26,0.387246038,c3oian
13,31,SPOON,UNREL,r,4.223689768,3.744015211,1,883.6190476190476,115,48,0.030983292,c3oian
13,31,TIRTH,NONCE,b,5.075778593,NA,1,713.7,116,10,NA,c3oian
13,31,BINGO,UNREL,r,4.78505379,3.844663502,1,587.6190476190476,117,24,0.042999458,c3oian
13,31,JULTS,NONCE,b,3.087558969,NA,1,664,120,16,NA,c3oian
14,22,TIGER,UNREL,r,2.459390987,4.142626275,1,918.9523809523808,1,57,0.34483263,pvtrvp
14,22,DISCO,UNREL,r,3.541556206,3.655557686,1,1067.142857142857,4,45,0.069841755,pvtrvp
14,22,POUCH,UNREL,b,5.005747312,3.519602188,1,1061.308,7,18,0.028582389,pvtrvp
14,22,BACON,REL,b,3.590390365,3.975196615,1,964.4,8,17,0.581803613,pvtrvp
14,22,LORRY,REL,b,2.794650654,3.193575913,1,982.8,10,23,0.504048878,pvtrvp
14,22,STOUT,UNREL,b,3.927682114,3.549681245,1,1953.7440000000001,12,6,0.073515012,pvtrvp
14,22,FIELD,REL,r,4.189108375,5.35321928,1,563.45,16,32,0.284884024,pvtrvp
14,22,GARGE,NONCE,b,3.96226586,NA,1,1833.5,17,25,NA,pvtrvp
14,22,ONION,UNREL,b,3.147773871,3.874821707,1,984.952,18,36,0.024638016,pvtrvp
14,22,DINTH,NONCE,b,4.870998895,NA,1,1353.1,20,13,NA,pvtrvp
14,22,LAUGH,REL,r,3.672348826,4.316053735,1,449.7,21,50,0.419525812,pvtrvp
14,22,PLANE,REL,b,4.382518198,4.578922163,1,967.2,22,11,0.297423709,pvtrvp
14,22,SPOON,UNREL,b,4.223689768,3.744015211,1,910.313,25,48,0.030983292,pvtrvp
14,22,MODEL,REL,b,3.223196377,5.311004219,1,881.1,27,47,0.31482591,pvtrvp
14,22,GRANT,REL,b,2.935126552,4.850225334,1,992.4,29,29,0.693079255,pvtrvp
14,22,WRUNK,NONCE,r,3.296803811,NA,1,1555.68,31,40,NA,pvtrvp
14,22,SMILE,REL,b,3.827345184,4.538804727,1,780.2,34,53,0.356322599,pvtrvp
14,22,PEARL,UNREL,r,3.784228166,4.091225612,1,737.6190476190476,35,39,0.144013775,pvtrvp
14,22,TORSO,UNREL,r,4.042783642,3.489874614,1,888.9523809523808,36,9,0.091146301,pvtrvp
14,22,FAITH,REL,r,3.485497116,4.909946679,1,360.25,38,26,0.387246038,pvtrvp
14,22,MERCY,UNREL,b,2.954817735,4.227867511,1,799.5160000000001,39,54,0.200530544,pvtrvp
14,22,SWILK,NONCE,r,3.571960851,NA,1,1856.3999999999999,49,28,NA,pvtrvp
14,22,SMECK,NONCE,b,3.570916411,NA,1,1151.1,51,55,NA,pvtrvp
14,22,NYLON,UNREL,r,4.257983625,3.681235784,1,970.3809523809523,53,51,0.023932131,pvtrvp
14,22,AISLE,UNREL,b,4.33783738,3.65360327,1,706.798,54,30,0.040631859,pvtrvp
14,22,OCEAN,REL,r,3.671694735,4.714494586,1,392.45000000000005,56,38,0.436893167,pvtrvp
14,22,WHEAT,UNREL,b,5.617442386,4.199949835,1,1317.4440000000002,58,42,0.072750297,pvtrvp
14,22,SPORT,REL,b,3.583221526,4.682414816,1,847.5,61,35,0.345946689,pvtrvp
14,22,SALAD,UNREL,r,3.407217937,4.075985546,1,682.5714285714286,63,21,0.086324713,pvtrvp
14,22,GRAPE,UNREL,r,3.484128918,3.75194906,1,650.0952380952381,64,15,0.044440644,pvtrvp
14,22,JESKS,NONCE,b,3.496627781,NA,1,616.4,65,19,NA,pvtrvp
14,22,GNISP,NONCE,r,3.681799882,NA,1,1068.6,70,46,NA,pvtrvp
14,22,GLAFT,NONCE,r,4.510372539,NA,1,1679.3999999999999,71,58,NA,pvtrvp
14,22,BINGO,UNREL,b,4.78505379,3.844663502,1,881.0229999999999,75,24,0.042999458,pvtrvp
14,22,SWEFT,NONCE,b,3.659160937,NA,1,1115.4,78,49,NA,pvtrvp
14,22,BIRTH,REL,r,3.331052745,4.789408745,1,331.05,79,14,0.686182952,pvtrvp
14,22,MARCH,REL,r,4.271877839,5.33947384,1,349.05,81,44,0.149010967,pvtrvp
14,22,FLOVE,NONCE,b,3.499480888,NA,1,1120.8,82,37,NA,pvtrvp
14,22,VOICE,REL,r,4.438372257,5.048236364,1,375.75,84,56,0.43050393,pvtrvp
14,22,PEACE,REL,r,4.166816978,5.000544983,1,334.25,85,20,0.399338922,pvtrvp
14,22,PARTY,REL,r,4.104575844,5.35027968,1,316.2,91,2,0.643797235,pvtrvp
14,22,WOOSE,NONCE,b,4.054597373,NA,1,1564.4,92,1,NA,pvtrvp
14,22,TROLF,NONCE,b,4.141850119,NA,1,1164.6,93,7,NA,pvtrvp
14,22,TRAIN,REL,b,3.563555912,4.884322105,1,622.9,94,59,0.704060439,pvtrvp
14,22,DWEED,NONCE,r,3.506495478,NA,1,1018.8,95,52,NA,pvtrvp
14,22,MUSIC,REL,b,3.949644483,5.474563669,1,822,97,41,0.500925534,pvtrvp
14,22,TIRTH,NONCE,r,5.075778593,NA,1,858.4800000000001,100,10,NA,pvtrvp
14,22,TRADE,REL,b,3.316655402,5.154909161,1,979.8,101,5,0.538092297,pvtrvp
14,22,PIPER,UNREL,b,2.442833304,3.583693845,1,794.365,102,60,0.332504352,pvtrvp
14,22,VECTS,NONCE,r,3.651952199,NA,1,2237.52,104,22,NA,pvtrvp
14,22,KNURN,NONCE,b,4.216284055,NA,1,983.7,106,31,NA,pvtrvp
14,22,CURRY,UNREL,r,4.528661332,3.821678729,1,831.8095238095237,107,33,0.096814912,pvtrvp
14,22,WROSH,NONCE,b,3.001120593,NA,1,883.6,108,43,NA,pvtrvp
14,22,JULTS,NONCE,r,3.087558969,NA,1,1160.1599999999999,109,16,NA,pvtrvp
14,22,MELON,UNREL,r,5.294762043,3.192247125,1,617.5238095238095,110,3,0.029311037,pvtrvp
14,22,FIGHT,REL,r,3.603458685,4.976780877,1,342.4,112,8,0.546862958,pvtrvp
14,22,GENCE,NONCE,r,2.761427779,NA,1,1481.5199999999998,114,34,NA,pvtrvp
14,22,ALIEN,UNREL,r,4.064504628,4.254807488,1,2998.857142857143,116,27,0.128075313,pvtrvp
14,22,ACORN,UNREL,b,4.460251055,3.430462728,1,755.783,117,12,0.053296581,pvtrvp
15,33,ABBEY,UNREL,r,3.671694735,3.984588569,1,1427.333333333333,4,38,0.119944522,t3u52c
15,33,LUNCH,REL,b,2.761427779,4.606665233,1,1413.8,5,34,0.479175879,t3u52c
15,33,YAWKS,NONCE,r,4.257983625,NA,1,5115.719999999999,6,51,NA,t3u52c
15,33,JELLY,UNREL,r,4.189108375,3.64832932,1,1379.904761904762,7,32,0.138065285,t3u52c
15,33,RHINO,UNREL,b,4.382518198,3.433099598,1,1600.85,9,11,0.053885011,t3u52c
15,33,RADIO,REL,b,3.571960851,5.026411461,1,2103,10,28,0.703118549,t3u52c
15,33,MONEY,REL,b,3.734240866,5.445211745,1,1268.5,11,4,0.309071146,t3u52c
15,33,YEAST,UNREL,r,4.166816978,3.894766559,1,1222.2857142857142,15,20,0.003929906,t3u52c
15,33,SONGE,NONCE,r,3.407217937,NA,1,2966.76,16,21,NA,t3u52c
15,33,DRILL,UNREL,b,3.223196377,4.171446442,1,1598.426,17,47,0.118019216,t3u52c
15,33,COMMA,UNREL,b,3.316655402,3.339578962,1,1790.6290000000001,18,5,0.068335277,t3u52c
15,33,THOOB,NONCE,b,4.223689768,NA,1,1817.5,19,48,NA,t3u52c
15,33,PATIO,UNREL,b,3.563555912,3.954710348,1,1382.69,22,59,0.06281869,t3u52c
15,33,KNIFE,REL,r,4.054597373,4.235952941,1,717.45,23,1,0.245669374,t3u52c
15,33,VINYL,UNREL,b,3.590390365,4.062863781,1,1332.493,25,17,0.121592092,t3u52c
15,33,STRUG,NONCE,b,5.617442386,NA,1,3652.5,26,42,NA,t3u52c
15,33,MATCH,REL,b,3.681799882,4.975835563,1,1207.9,29,46,0.258602769,t3u52c
15,33,GLUSK,NONCE,r,5.294762043,NA,1,2440.68,30,3,NA,t3u52c
15,33,BRAND,REL,r,3.496627781,4.931775687,1,968.55,34,19,0.385224937,t3u52c
15,33,BEERS,REL,b,3.506495478,3.8393205,1,1365.8,36,52,0.631759898,t3u52c
15,33,SMIME,NONCE,b,4.460251055,NA,1,2046.6,37,12,NA,t3u52c
15,33,VIRUS,REL,r,3.499480888,4.520684432,1,752.6,40,37,0.262233394,t3u52c
15,33,AGENT,REL,b,3.296803811,4.753427409,1,1150.4,43,40,0.337449731,t3u52c
15,33,FROST,UNREL,r,4.438372257,3.939753275,1,1011.1428571428571,44,56,0.081929196,t3u52c
15,33,TABLE,UNREL,r,4.271877839,5.173113896,1,979.047619047619,45,44,0.091154285,t3u52c
15,33,SPEED,REL,b,3.087558969,5.04588704,1,1212.3,46,16,0.490664923,t3u52c
15,33,PANCH,NONCE,r,4.064504628,NA,1,2441.52,47,27,NA,t3u52c
15,33,PASTE,UNREL,r,3.485497116,4.06414926,1,1290,48,26,0.039538417,t3u52c
15,33,GUTHS,NONCE,r,3.484128918,NA,1,1695.24,52,15,NA,t3u52c
15,33,KNARN,NONCE,r,3.784228166,NA,1,1603.32,53,39,NA,t3u52c
15,33,LORKS,NONCE,r,4.042783642,NA,1,2254.68,58,9,NA,t3u52c
15,33,HINGE,UNREL,r,4.104575844,3.553564965,1,1176.7619047619046,60,2,0.007983453,t3u52c
15,33,PLOBS,NONCE,b,3.927682114,NA,1,1463.5,63,6,NA,t3u52c
15,33,CLEAP,NONCE,b,2.442833304,NA,1,1658.1,66,60,NA,t3u52c
15,33,BUNNY,UNREL,b,2.935126552,3.642666662,1,1054.743,68,29,0.032653466,t3u52c
15,33,SEWER,UNREL,r,3.603458685,3.789496554,1,1344.7619047619048,69,8,0.02763056,t3u52c
15,33,VENUS,UNREL,b,2.794650654,3.875248254,1,1415.515,70,23,0.16601469,t3u52c
15,33,GLARM,NONCE,b,5.005747312,NA,1,1630.3000000000002,73,18,NA,t3u52c
15,33,SPAMP,NONCE,r,4.528661332,NA,1,4872.5999999999995,75,33,NA,t3u52c
15,33,BRUTE,UNREL,r,3.331052745,3.399301254,1,1297.9047619047617,78,14,0.067550257,t3u52c
15,33,LERTH,NONCE,r,2.459390987,NA,1,1695,79,57,NA,t3u52c
15,33,MOVIE,REL,b,4.510372539,4.993537163,1,1015,81,58,0.442868415,t3u52c
15,33,ORDER,REL,b,5.075778593,5.575114555,1,1352.9,83,10,0.143788679,t3u52c
15,33,BLEPH,NONCE,b,3.147773871,NA,1,1280.5,85,36,NA,t3u52c
15,33,CLASS,REL,r,4.870998895,5.343083165,1,906.35,87,13,0.359033021,t3u52c
15,33,GRULT,NONCE,b,4.33783738,NA,1,2929.1,93,30,NA,t3u52c
15,33,LASER,REL,r,3.570916411,4.427679227,1,642.5999999999999,95,55,0.456487588,t3u52c
15,33,BEARD,REL,b,3.651952199,3.815537153,1,5496,96,22,0.477421541,t3u52c
15,33,IMAGE,REL,r,4.216284055,5.236261817,1,531.95,97,31,0.645265134,t3u52c
15,33,SHARE,REL,r,4.141850119,5.267842197,1,553.8499999999999,98,7,0.612401491,t3u52c
15,33,LINEN,UNREL,b,3.949644483,3.76364436,1,1224.423,100,41,0.008169191,t3u52c
15,33,FLUID,UNREL,r,3.672348826,4.467858603,1,932.4761904761905,101,50,0.037918829,t3u52c
15,33,GOOSE,UNREL,b,3.827345184,3.750050502,1,1170.489,103,53,0.118541471,t3u52c
15,33,GRADE,REL,r,3.659160937,4.730948829,1,592.35,111,49,0.402394073,t3u52c
15,33,NORPS,NONCE,r,3.541556206,NA,1,1724.28,112,45,NA,t3u52c
15,33,FRUIT,REL,r,3.001120593,4.68106214,1,620.2,115,43,0.276487326,t3u52c
15,33,MEDAL,REL,r,3.96226586,4.351910561,1,573.7,116,25,0.674954706,t3u52c
15,33,LOGIC,UNREL,b,3.583221526,4.517884107,1,8966.578000000001,117,35,0.190464999,t3u52c
15,33,GLIPS,NONCE,b,4.78505379,NA,1,1112.1,119,24,NA,t3u52c
16,35,GLIMP,NONCE,b,2.954817735,NA,1,4131,1,54,NA,ak913n
16,35,CLEAP,NONCE,b,2.442833304,NA,1,1805,5,60,NA,ak913n
16,35,IMAGE,REL,r,4.216284055,5.236261817,1,791,7,31,0.645265134,ak913n
16,35,YEAST,UNREL,r,4.166816978,3.894766559,1,2237.142857142857,8,20,0.003929906,ak913n
16,35,LASER,REL,r,3.570916411,4.427679227,1,1133.5,9,55,0.456487588,ak913n
16,35,HINGE,UNREL,r,4.104575844,3.553564965,1,1443.8095238095239,14,2,0.007983453,ak913n
16,35,FRUIT,REL,r,3.001120593,4.68106214,1,592,15,43,0.276487326,ak913n
16,35,COMMA,UNREL,b,3.316655402,3.339578962,1,2186.65,16,5,0.068335277,ak913n
16,35,GRULT,NONCE,b,4.33783738,NA,1,1390,20,30,NA,ak913n
16,35,SPEED,REL,b,3.087558969,5.04588704,1,1515,23,16,0.490664923,ak913n
16,35,MEDAL,REL,r,3.96226586,4.351910561,1,991.5,28,25,0.674954706,ak913n
16,35,AGENT,REL,b,3.296803811,4.753427409,1,1290,31,40,0.337449731,ak913n
16,35,KNIFE,REL,r,4.054597373,4.235952941,1,599.5,32,1,0.245669374,ak913n
16,35,NORPS,NONCE,r,3.541556206,NA,1,1675.2,33,45,NA,ak913n
16,35,JELLY,UNREL,r,4.189108375,3.64832932,1,1253.3333333333333,34,32,0.138065285,ak913n
16,35,ABBEY,UNREL,r,3.671694735,3.984588569,1,3046.6666666666665,36,38,0.119944522,ak913n
16,35,LINEN,UNREL,b,3.949644483,3.76364436,1,1532.17,40,41,0.008169191,ak913n
16,35,PATIO,UNREL,b,3.563555912,3.954710348,1,1755.38,41,59,0.06281869,ak913n
16,35,VIRUS,REL,r,3.499480888,4.520684432,1,2294,43,37,0.262233394,ak913n
16,35,PANCH,NONCE,r,4.064504628,NA,1,2720.4,44,27,NA,ak913n
16,35,PLOBS,NONCE,b,3.927682114,NA,1,1335,46,6,NA,ak913n
16,35,VINYL,UNREL,b,3.590390365,4.062863781,1,1518.03,48,17,0.121592092,ak913n
16,35,CLASS,REL,r,4.870998895,5.343083165,1,733,51,13,0.359033021,ak913n
16,35,YAWKS,NONCE,r,4.257983625,NA,1,1777.2,52,51,NA,ak913n
16,35,GLIPS,NONCE,b,4.78505379,NA,1,3997,53,24,NA,ak913n
16,35,MONEY,REL,b,3.734240866,5.445211745,1,1373,54,4,0.309071146,ak913n
16,35,LOGIC,UNREL,b,3.583221526,4.517884107,1,1319.06,55,35,0.190464999,ak913n
16,35,TABLE,UNREL,r,4.271877839,5.173113896,1,1300.952380952381,58,44,0.091154285,ak913n
16,35,BRAND,REL,r,3.496627781,4.931775687,1,699.5,59,19,0.385224937,ak913n
16,35,ORDER,REL,b,5.075778593,5.575114555,1,1390,61,10,0.143788679,ak913n
16,35,BUNNY,UNREL,b,2.935126552,3.642666662,1,1414,63,29,0.032653466,ak913n
16,35,LORKS,NONCE,r,4.042783642,NA,1,1477.2,64,9,NA,ak913n
16,35,RHINO,UNREL,b,4.382518198,3.433099598,1,1437.23,65,11,0.053885011,ak913n
16,35,GOOSE,UNREL,b,3.827345184,3.750050502,1,1169.58,66,53,0.118541471,ak913n
16,35,SEWER,UNREL,r,3.603458685,3.789496554,1,1317.142857142857,68,8,0.02763056,ak913n
16,35,MOVIE,REL,b,4.510372539,4.993537163,1,1355,69,58,0.442868415,ak913n
16,35,BEARD,REL,b,3.651952199,3.815537153,1,1235,73,22,0.477421541,ak913n
16,35,GRADE,REL,r,3.659160937,4.730948829,1,591.5,76,49,0.402394073,ak913n
16,35,VENUS,UNREL,b,2.794650654,3.875248254,1,1284.72,81,23,0.16601469,ak913n
16,35,FROST,UNREL,r,4.438372257,3.939753275,1,1240.952380952381,83,56,0.081929196,ak913n
16,35,LERTH,NONCE,r,2.459390987,NA,1,1460.3999999999999,86,57,NA,ak913n
16,35,THOOB,NONCE,b,4.223689768,NA,1,1149,88,48,NA,ak913n
16,35,LUNCH,REL,b,2.761427779,4.606665233,1,1250,91,34,0.479175879,ak913n
16,35,BEERS,REL,b,3.506495478,3.8393205,1,3217,92,52,0.631759898,ak913n
16,35,GLUSK,NONCE,r,5.294762043,NA,1,1519.2,97,3,NA,ak913n
16,35,SPAMP,NONCE,r,4.528661332,NA,1,1645.2,99,33,NA,ak913n
16,35,FLUID,UNREL,r,3.672348826,4.467858603,1,1333.3333333333333,100,50,0.037918829,ak913n
16,35,SONGE,NONCE,r,3.407217937,NA,1,2590.7999999999997,101,21,NA,ak913n
16,35,PASTE,UNREL,r,3.485497116,4.06414926,1,1221.904761904762,102,26,0.039538417,ak913n
16,35,GUTHS,NONCE,r,3.484128918,NA,1,1561.2,103,15,NA,ak913n
16,35,SMIME,NONCE,b,4.460251055,NA,1,1742,105,12,NA,ak913n
16,35,STRUG,NONCE,b,5.617442386,NA,1,1508,106,42,NA,ak913n
16,35,RADIO,REL,b,3.571960851,5.026411461,1,1297,107,28,0.703118549,ak913n
16,35,BRUTE,UNREL,r,3.331052745,3.399301254,1,1811.4285714285713,108,14,0.067550257,ak913n
16,35,KNARN,NONCE,r,3.784228166,NA,1,1620,109,39,NA,ak913n
16,35,SHARE,REL,r,4.141850119,5.267842197,1,602,111,7,0.612401491,ak913n
16,35,BLEPH,NONCE,b,3.147773871,NA,1,1967,112,36,NA,ak913n
16,35,GLARM,NONCE,b,5.005747312,NA,1,1218,113,18,NA,ak913n
16,35,DRILL,UNREL,b,3.223196377,4.171446442,1,1362.49,115,47,0.118019216,ak913n
16,35,MATCH,REL,b,3.681799882,4.975835563,1,1114,116,46,0.258602769,ak913n
17,28,BEARD,REL,b,3.651952199,3.815537153,1,1441.4,2,22,0.477421541,6xgwzt
17,28,PLOBS,NONCE,b,3.927682114,NA,1,1116.5,3,6,NA,6xgwzt
17,28,CLEAP,NONCE,b,2.442833304,NA,1,1897.5,4,60,NA,6xgwzt
17,28,RHINO,UNREL,b,4.382518198,3.433099598,1,1278.054,6,11,0.053885011,6xgwzt
17,28,LINEN,UNREL,b,3.949644483,3.76364436,1,1738.412,7,41,0.008169191,6xgwzt
17,28,YAWKS,NONCE,r,4.257983625,NA,1,1348.4399999999998,10,51,NA,6xgwzt
17,28,PANCH,NONCE,r,4.064504628,NA,1,1338.48,11,27,NA,6xgwzt
17,28,HINGE,UNREL,r,4.104575844,3.553564965,1,1062.7619047619048,15,2,0.007983453,6xgwzt
17,28,GLUSK,NONCE,r,5.294762043,NA,1,1143,16,3,NA,6xgwzt
17,28,MONEY,REL,b,3.734240866,5.445211745,1,816.6999999999999,17,4,0.309071146,6xgwzt
17,28,COMMA,UNREL,b,3.316655402,3.339578962,1,1194.527,18,5,0.068335277,6xgwzt
17,28,MATCH,REL,b,3.681799882,4.975835563,1,983.4,19,46,0.258602769,6xgwzt
17,28,MEDAL,REL,r,3.96226586,4.351910561,1,410.8,22,25,0.674954706,6xgwzt
17,28,YEAST,UNREL,r,4.166816978,3.894766559,1,827.6190476190476,24,20,0.003929906,6xgwzt
17,28,SMIME,NONCE,b,4.460251055,NA,1,1167.1,26,12,NA,6xgwzt
17,28,BRAND,REL,r,3.496627781,4.931775687,1,402.65000000000003,28,19,0.385224937,6xgwzt
17,28,SPAMP,NONCE,r,4.528661332,NA,1,1437.9599999999998,31,33,NA,6xgwzt
17,28,VIRUS,REL,r,3.499480888,4.520684432,1,449.79999999999995,32,37,0.262233394,6xgwzt
17,28,LOGIC,UNREL,b,3.583221526,4.517884107,1,1548.128,34,35,0.190464999,6xgwzt
17,28,LORKS,NONCE,r,4.042783642,NA,1,1000.3199999999999,35,9,NA,6xgwzt
17,28,GRULT,NONCE,b,4.33783738,NA,1,1051.1,38,30,NA,6xgwzt
17,28,ABBEY,UNREL,r,3.671694735,3.984588569,1,1554.2857142857142,39,38,0.119944522,6xgwzt
17,28,BEERS,REL,b,3.506495478,3.8393205,1,800.1,44,52,0.631759898,6xgwzt
17,28,DRILL,UNREL,b,3.223196377,4.171446442,1,945.562,47,47,0.118019216,6xgwzt
17,28,ORDER,REL,b,5.075778593,5.575114555,1,632.8000000000001,49,10,0.143788679,6xgwzt
17,28,GUTHS,NONCE,r,3.484128918,NA,1,1164.9599999999998,52,15,NA,6xgwzt
17,28,VENUS,UNREL,b,2.794650654,3.875248254,1,1148.067,56,23,0.16601469,6xgwzt
17,28,TABLE,UNREL,r,4.271877839,5.173113896,1,750.1904761904761,58,44,0.091154285,6xgwzt
17,28,BLEPH,NONCE,b,3.147773871,NA,1,1015.3,59,36,NA,6xgwzt
17,28,STRUG,NONCE,b,5.617442386,NA,1,1230.6,60,42,NA,6xgwzt
17,28,FRUIT,REL,r,3.001120593,4.68106214,1,408.4,62,43,0.276487326,6xgwzt
17,28,KNIFE,REL,r,4.054597373,4.235952941,1,626.1,67,1,0.245669374,6xgwzt
17,28,GRADE,REL,r,3.659160937,4.730948829,1,683.6,68,49,0.402394073,6xgwzt
17,28,GLARM,NONCE,b,5.005747312,NA,1,1500.9,74,18,NA,6xgwzt
17,28,SHARE,REL,r,4.141850119,5.267842197,1,627.15,79,7,0.612401491,6xgwzt
17,28,LUNCH,REL,b,2.761427779,4.606665233,1,1249.5,81,34,0.479175879,6xgwzt
17,28,JELLY,UNREL,r,4.189108375,3.64832932,1,1140.952380952381,82,32,0.138065285,6xgwzt
17,28,AGENT,REL,b,3.296803811,4.753427409,1,1155,83,40,0.337449731,6xgwzt
17,28,GLIPS,NONCE,b,4.78505379,NA,1,1099.5,85,24,NA,6xgwzt
17,28,GLIMP,NONCE,b,2.954817735,NA,1,1232.9,86,54,NA,6xgwzt
17,28,SEWER,UNREL,r,3.603458685,3.789496554,1,1095.8095238095236,90,8,0.02763056,6xgwzt
17,28,THOOB,NONCE,b,4.223689768,NA,1,1381.8,91,48,NA,6xgwzt
17,28,LASER,REL,r,3.570916411,4.427679227,1,437.3,93,55,0.456487588,6xgwzt
17,28,SONGE,NONCE,r,3.407217937,NA,1,968.1599999999999,95,21,NA,6xgwzt
17,28,PATIO,UNREL,b,3.563555912,3.954710348,1,709.2220000000001,96,59,0.06281869,6xgwzt
17,28,FROST,UNREL,r,4.438372257,3.939753275,1,681.7142857142857,97,56,0.081929196,6xgwzt
17,28,PASTE,UNREL,r,3.485497116,4.06414926,1,779.3333333333334,99,26,0.039538417,6xgwzt
17,28,NORPS,NONCE,r,3.541556206,NA,1,919.1999999999999,100,45,NA,6xgwzt
17,28,MOVIE,REL,b,4.510372539,4.993537163,1,756.1,102,58,0.442868415,6xgwzt
17,28,FLUID,UNREL,r,3.672348826,4.467858603,1,698.4761904761905,104,50,0.037918829,6xgwzt
17,28,CLASS,REL,r,4.870998895,5.343083165,1,358.4,106,13,0.359033021,6xgwzt
17,28,KNARN,NONCE,r,3.784228166,NA,1,1198.92,108,39,NA,6xgwzt
17,28,GOOSE,UNREL,b,3.827345184,3.750050502,1,732.4519999999999,110,53,0.118541471,6xgwzt
17,28,LERTH,NONCE,r,2.459390987,NA,1,829.92,111,57,NA,6xgwzt
17,28,BUNNY,UNREL,b,2.935126552,3.642666662,1,875.2660000000001,112,29,0.032653466,6xgwzt
17,28,RADIO,REL,b,3.571960851,5.026411461,1,649.3,114,28,0.703118549,6xgwzt
17,28,SPEED,REL,b,3.087558969,5.04588704,1,606.4000000000001,116,16,0.490664923,6xgwzt
17,28,IMAGE,REL,r,4.216284055,5.236261817,1,395.34999999999997,117,31,0.645265134,6xgwzt
18,23,STEEL,REL,r,4.528661332,4.773777517,1,432.59999999999997,2,33,0.358177388,asbq6a
18,23,GLIRM,NONCE,b,4.189108375,NA,1,2900.3,4,32,NA,asbq6a
18,23,DROWL,NONCE,r,2.935126552,NA,1,962.28,7,29,NA,asbq6a
18,23,RADAR,UNREL,r,2.761427779,4.205675385,1,993.2380952380953,8,34,0.042865261,asbq6a
18,23,POWER,REL,r,5.294762043,5.588746199,1,446.7,12,3,0.120705124,asbq6a
18,23,ESSAY,REL,b,4.78505379,4.668647528,1,993.7,14,24,0.229238232,asbq6a
18,23,INDEX,UNREL,r,3.571960851,4.74479794,1,564.0952380952382,16,28,0.069182129,asbq6a
18,23,ROKES,NONCE,b,4.271877839,NA,1,808.2,19,44,NA,asbq6a
18,23,WHEEL,REL,r,3.784228166,4.550270351,1,355.54999999999995,20,39,0.656811439,asbq6a
18,23,HORSE,REL,r,3.484128918,4.713931387,1,348.8,21,15,0.821285068,asbq6a
18,23,PIVED,NONCE,b,3.603458685,NA,1,1502.9,23,8,NA,asbq6a
18,23,GLOMP,NONCE,r,3.949644483,NA,1,814.4399999999999,24,41,NA,asbq6a
18,23,NIRCH,NONCE,r,3.827345184,NA,1,2389.2,25,53,NA,asbq6a
18,23,STUMP,UNREL,r,5.075778593,3.413519289,1,1593.047619047619,27,10,0.055355864,asbq6a
18,23,NULSE,NONCE,r,3.590390365,NA,1,2995.2,28,17,NA,asbq6a
18,23,STUNT,UNREL,r,3.734240866,3.567262547,1,850.1904761904761,29,4,0.101478916,asbq6a
18,23,NERNS,NONCE,r,3.563555912,NA,1,6845.52,32,59,NA,asbq6a
18,23,QUIBS,NONCE,b,4.104575844,NA,1,3594.5,33,2,NA,asbq6a
18,23,BRURL,NONCE,b,4.166816978,NA,1,2072.4,35,20,NA,asbq6a
18,23,TUTOR,UNREL,b,3.001120593,3.930647709,1,745.481,38,43,0.092758339,asbq6a
18,23,DAIRY,REL,r,2.459390987,4.20061812,1,447.40000000000003,39,57,0.241572992,asbq6a
18,23,STAFF,REL,b,4.460251055,5.302678942,1,773.4,40,12,0.365606156,asbq6a
18,23,BONUS,REL,b,5.005747312,4.515522967,1,706.3000000000001,41,18,0.125759944,asbq6a
18,23,PLANT,REL,r,3.541556206,5.026411782,1,407.34999999999997,43,45,0.501397476,asbq6a
18,23,DOOPS,NONCE,r,2.794650654,NA,1,1901.88,45,23,NA,asbq6a
18,23,FLERG,NONCE,r,4.382518198,NA,1,887.28,46,11,NA,asbq6a
18,23,YURFS,NONCE,b,3.672348826,NA,1,895.4,47,50,NA,asbq6a
18,23,SHARK,UNREL,r,3.087558969,3.929769388,1,778.2857142857143,48,16,0.095724535,asbq6a
18,23,YOUTH,UNREL,b,4.216284055,4.938331983,1,723.5640000000001,49,31,0.110552167,asbq6a
18,23,SALON,UNREL,b,3.499480888,3.900709192,1,711.141,51,37,0.110577655,asbq6a
18,23,TOWER,REL,r,4.257983625,4.604307777,1,360.3,58,51,0.65194005,asbq6a
18,23,ALARM,UNREL,b,3.659160937,4.273577104,1,676.195,59,49,0.146049347,asbq6a
18,23,TRIBE,UNREL,r,3.651952199,4.189781038,1,729.8095238095237,60,22,0.169582503,asbq6a
18,23,GELKS,NONCE,r,3.583221526,NA,1,1048.32,62,35,NA,asbq6a
18,23,DRAIN,REL,r,3.407217937,4.147611827,1,384.29999999999995,64,21,0.387145282,asbq6a
18,23,GLOBE,UNREL,r,3.506495478,4.416076472,1,942.1904761904761,67,52,0.282091996,asbq6a
18,23,MODEM,UNREL,b,3.96226586,3.755853299,1,16273.422999999999,73,25,0.012195619,asbq6a
18,23,CADET,UNREL,b,4.054597373,3.463204461,1,1486.518,74,1,0.239131041,asbq6a
18,23,STAMP,REL,b,2.954817735,4.107372874,1,905,75,54,0.44493658,asbq6a
18,23,BERRY,UNREL,r,4.510372539,3.930373842,1,1180.0952380952378,76,58,0.410938427,asbq6a
18,23,OLIVE,UNREL,b,4.870998895,4.138893633,1,902.233,78,13,0.046719131,asbq6a
18,23,GELPS,NONCE,b,4.438372257,NA,1,1647.5,79,56,NA,asbq6a
18,23,BOARD,REL,b,5.617442386,5.350430177,1,818.5,80,42,0.291918533,asbq6a
18,23,BESKS,NONCE,b,3.485497116,NA,1,989.8,81,26,NA,asbq6a
18,23,MAFTS,NONCE,b,3.671694735,NA,1,1487.7,82,38,NA,asbq6a
18,23,BRICK,REL,r,4.042783642,4.255257406,1,355.3,84,9,0.647438362,asbq6a
18,23,DWERT,NONCE,b,3.331052745,NA,1,954.1,85,14,NA,asbq6a
18,23,BASIL,UNREL,r,3.296803811,3.689125491,1,696.3809523809523,86,40,0.137191468,asbq6a
18,23,BRIDE,UNREL,b,3.570916411,3.990911755,1,673.5690000000001,87,55,0.039438298,asbq6a
18,23,SLANG,UNREL,b,4.141850119,3.39835149,1,1165.54,90,7,0.049636608,asbq6a
18,23,BLOOD,REL,b,3.147773871,5.105996143,1,3079.2999999999997,91,36,0.229315858,asbq6a
18,23,YULBS,NONCE,r,3.223196377,NA,1,852.6,92,47,NA,asbq6a
18,23,PIANO,UNREL,b,3.496627781,4.453364025,1,1665.793,94,19,0.066770659,asbq6a
18,23,TRUNK,UNREL,r,3.681799882,4.022054607,1,702.3809523809524,95,46,-3.5711e-5,asbq6a
18,23,PAPER,REL,b,4.33783738,5.230293913,1,831.3000000000001,99,30,0.359043466,asbq6a
18,23,STAGE,REL,b,3.927682114,5.108336861,1,642,104,6,0.581022535,asbq6a
18,23,DIRPS,NONCE,r,3.316655402,NA,1,827.28,108,5,NA,asbq6a
18,23,GRAPH,REL,b,4.223689768,4.176312386,1,916.2,109,48,0.141363369,asbq6a
18,23,GUEST,REL,b,2.442833304,4.677271228,1,678.3000000000001,117,60,0.469866532,asbq6a
18,23,BROOM,REL,r,4.064504628,3.354276001,1,443.5,119,27,0.363666985,asbq6a
19,31,ESSAY,REL,b,4.78505379,4.668647528,1,716.9,2,24,0.229238232,rj45c9
19,31,GLIRM,NONCE,b,4.189108375,NA,1,921.7,6,32,NA,rj45c9
19,31,STUNT,UNREL,r,3.734240866,3.567262547,1,759.3333333333333,7,4,0.101478916,rj45c9
19,31,DAIRY,REL,r,2.459390987,4.20061812,1,322.85,10,57,0.241572992,rj45c9
19,31,TOWER,REL,r,4.257983625,4.604307777,1,317.75,12,51,0.65194005,rj45c9
19,31,QUIBS,NONCE,b,4.104575844,NA,1,1108.2,14,2,NA,rj45c9
19,31,SHARK,UNREL,r,3.087558969,3.929769388,1,1054.9523809523807,20,16,0.095724535,rj45c9
19,31,YURFS,NONCE,b,3.672348826,NA,1,844.9,21,50,NA,rj45c9
19,31,NULSE,NONCE,r,3.590390365,NA,1,1017.24,22,17,NA,rj45c9
19,31,WHEEL,REL,r,3.784228166,4.550270351,1,436.5,24,39,0.656811439,rj45c9
19,31,YOUTH,UNREL,b,4.216284055,4.938331983,1,1140.3909999999998,25,31,0.110552167,rj45c9
19,31,BASIL,UNREL,r,3.296803811,3.689125491,1,698.4761904761905,29,40,0.137191468,rj45c9
19,31,GLOMP,NONCE,r,3.949644483,NA,1,1079.76,30,41,NA,rj45c9
19,31,DOOPS,NONCE,r,2.794650654,NA,1,929.76,32,23,NA,rj45c9
19,31,TRUNK,UNREL,r,3.681799882,4.022054607,1,766.7619047619047,34,46,-3.5711e-5,rj45c9
19,31,FLERG,NONCE,r,4.382518198,NA,1,818.16,35,11,NA,rj45c9
19,31,NERNS,NONCE,r,3.563555912,NA,1,712.68,39,59,NA,rj45c9
19,31,PLANT,REL,r,3.541556206,5.026411782,1,470.9,41,45,0.501397476,rj45c9
19,31,SALON,UNREL,b,3.499480888,3.900709192,1,909.505,42,37,0.110577655,rj45c9
19,31,GELKS,NONCE,r,3.583221526,NA,1,767.28,45,35,NA,rj45c9
19,31,STAFF,REL,b,4.460251055,5.302678942,1,648.5,46,12,0.365606156,rj45c9
19,31,HORSE,REL,r,3.484128918,4.713931387,1,273.7,51,15,0.821285068,rj45c9
19,31,STAMP,REL,b,2.954817735,4.107372874,1,529.4,52,54,0.44493658,rj45c9
19,31,GUEST,REL,b,2.442833304,4.677271228,1,725.3,57,60,0.469866532,rj45c9
19,31,ROKES,NONCE,b,4.271877839,NA,1,713.4000000000001,58,44,NA,rj45c9
19,31,BONUS,REL,b,5.005747312,4.515522967,1,751.3,59,18,0.125759944,rj45c9
19,31,POWER,REL,r,5.294762043,5.588746199,1,285.6,61,3,0.120705124,rj45c9
19,31,BRIDE,UNREL,b,3.570916411,3.990911755,1,684.9820000000001,63,55,0.039438298,rj45c9
19,31,BOARD,REL,b,5.617442386,5.350430177,1,760.1999999999999,67,42,0.291918533,rj45c9
19,31,INDEX,UNREL,r,3.571960851,4.74479794,1,650.2857142857142,68,28,0.069182129,rj45c9
19,31,OLIVE,UNREL,b,4.870998895,4.138893633,1,578.124,69,13,0.046719131,rj45c9
19,31,MODEM,UNREL,b,3.96226586,3.755853299,1,1734.0690000000002,70,25,0.012195619,rj45c9
19,31,NIRCH,NONCE,r,3.827345184,NA,1,814.68,76,53,NA,rj45c9
19,31,DROWL,NONCE,r,2.935126552,NA,1,2638.5599999999995,77,29,NA,rj45c9
19,31,TUTOR,UNREL,b,3.001120593,3.930647709,1,737.805,78,43,0.092758339,rj45c9
19,31,STEEL,REL,r,4.528661332,4.773777517,1,343.7,79,33,0.358177388,rj45c9
19,31,GLOBE,UNREL,r,3.506495478,4.416076472,1,1043.6190476190477,81,52,0.282091996,rj45c9
19,31,MAFTS,NONCE,b,3.671694735,NA,1,597.9,83,38,NA,rj45c9
19,31,PIANO,UNREL,b,3.496627781,4.453364025,1,672.054,85,19,0.066770659,rj45c9
19,31,DWERT,NONCE,b,3.331052745,NA,1,1014.2,87,14,NA,rj45c9
19,31,CADET,UNREL,b,4.054597373,3.463204461,1,671.751,88,1,0.239131041,rj45c9
19,31,BERRY,UNREL,r,4.510372539,3.930373842,1,584.3809523809524,89,58,0.410938427,rj45c9
19,31,GRAPH,REL,b,4.223689768,4.176312386,1,566.5,91,48,0.141363369,rj45c9
19,31,STAGE,REL,b,3.927682114,5.108336861,1,614.1999999999999,94,6,0.581022535,rj45c9
19,31,BESKS,NONCE,b,3.485497116,NA,1,627.8000000000001,95,26,NA,rj45c9
19,31,TRIBE,UNREL,r,3.651952199,4.189781038,1,678.190476190476,96,22,0.169582503,rj45c9
19,31,PIVED,NONCE,b,3.603458685,NA,1,842.8,97,8,NA,rj45c9
19,31,BRURL,NONCE,b,4.166816978,NA,1,616.4,99,20,NA,rj45c9
19,31,ALARM,UNREL,b,3.659160937,4.273577104,1,634.8860000000001,100,49,0.146049347,rj45c9
19,31,BLOOD,REL,b,3.147773871,5.105996143,1,646.7,101,36,0.229315858,rj45c9
19,31,DIRPS,NONCE,r,3.316655402,NA,1,916.1999999999999,103,5,NA,rj45c9
19,31,RADAR,UNREL,r,2.761427779,4.205675385,1,650.0952380952381,105,34,0.042865261,rj45c9
19,31,SLANG,UNREL,b,4.141850119,3.39835149,1,803.6569999999999,106,7,0.049636608,rj45c9
19,31,BROOM,REL,r,4.064504628,3.354276001,1,328.25,107,27,0.363666985,rj45c9
19,31,PAPER,REL,b,4.33783738,5.230293913,1,562.9,108,30,0.359043466,rj45c9
19,31,BRICK,REL,r,4.042783642,4.255257406,1,265.2,113,9,0.647438362,rj45c9
19,31,STUMP,UNREL,r,5.075778593,3.413519289,1,710.952380952381,114,10,0.055355864,rj45c9
19,31,DRAIN,REL,r,3.407217937,4.147611827,1,267.25,116,21,0.387145282,rj45c9
19,31,YULBS,NONCE,r,3.223196377,NA,1,696.84,117,47,NA,rj45c9
19,31,GELPS,NONCE,b,4.438372257,NA,1,586.7,118,56,NA,rj45c9
20,35,PIPER,UNREL,b,2.442833304,3.583693845,1,1730.635,1,60,0.332504352,ocpdo8
20,35,VOICE,REL,r,4.438372257,5.048236364,1,799.8499999999999,3,56,0.43050393,ocpdo8
20,35,TORSO,UNREL,r,4.042783642,3.489874614,1,1040.4761904761904,5,9,0.091146301,ocpdo8
20,35,BINGO,UNREL,b,4.78505379,3.844663502,1,768.509,7,24,0.042999458,ocpdo8
20,35,SWILK,NONCE,r,3.571960851,NA,1,1266.12,8,28,NA,ocpdo8
20,35,POUCH,UNREL,b,5.005747312,3.519602188,1,834.765,12,18,0.028582389,ocpdo8
20,35,TROLF,NONCE,b,4.141850119,NA,1,1148.9,15,7,NA,ocpdo8
20,35,TIRTH,NONCE,r,5.075778593,NA,1,1239.48,18,10,NA,ocpdo8
20,35,DISCO,UNREL,r,3.541556206,3.655557686,1,729.3333333333334,20,45,0.069841755,ocpdo8
20,35,WROSH,NONCE,b,3.001120593,NA,1,1072.9,22,43,NA,ocpdo8
20,35,LAUGH,REL,r,3.672348826,4.316053735,1,368.95,25,50,0.419525812,ocpdo8
20,35,GARGE,NONCE,b,3.96226586,NA,1,999.5,26,25,NA,ocpdo8
20,35,SPOON,UNREL,b,4.223689768,3.744015211,1,802.445,27,48,0.030983292,ocpdo8
20,35,MELON,UNREL,r,5.294762043,3.192247125,1,754.9523809523808,28,3,0.029311037,ocpdo8
20,35,TRADE,REL,b,3.316655402,5.154909161,1,876.4,33,5,0.538092297,ocpdo8
20,35,MODEL,REL,b,3.223196377,5.311004219,1,768.3,35,47,0.31482591,ocpdo8
20,35,NYLON,UNREL,r,4.257983625,3.681235784,1,1316.095238095238,36,51,0.023932131,ocpdo8
20,35,DINTH,NONCE,b,4.870998895,NA,1,773.8000000000001,37,13,NA,ocpdo8
20,35,PLANE,REL,b,4.382518198,4.578922163,1,791.4,40,11,0.297423709,ocpdo8
20,35,MERCY,UNREL,b,2.954817735,4.227867511,1,1014.1410000000001,41,54,0.200530544,ocpdo8
20,35,STOUT,UNREL,b,3.927682114,3.549681245,1,1003.0310000000001,45,6,0.073515012,ocpdo8
20,35,CURRY,UNREL,r,4.528661332,3.821678729,1,606.8571428571429,48,33,0.096814912,ocpdo8
20,35,WHEAT,UNREL,b,5.617442386,4.199949835,1,735.6840000000001,49,42,0.072750297,ocpdo8
20,35,GENCE,NONCE,r,2.761427779,NA,1,1167.72,51,34,NA,ocpdo8
20,35,BACON,REL,b,3.590390365,3.975196615,1,821.2,52,17,0.581803613,ocpdo8
20,35,MUSIC,REL,b,3.949644483,5.474563669,1,648.1,54,41,0.500925534,ocpdo8
20,35,GLAFT,NONCE,r,4.510372539,NA,1,1125.12,57,58,NA,ocpdo8
20,35,SWEFT,NONCE,b,3.659160937,NA,1,2526.5,61,49,NA,ocpdo8
20,35,ALIEN,UNREL,r,4.064504628,4.254807488,1,893.1428571428571,65,27,0.128075313,ocpdo8
20,35,FIGHT,REL,r,3.603458685,4.976780877,1,356.1,66,8,0.546862958,ocpdo8
20,35,PEARL,UNREL,r,3.784228166,4.091225612,1,756.8571428571428,67,39,0.144013775,ocpdo8
20,35,AISLE,UNREL,b,4.33783738,3.65360327,1,713.4639999999999,69,30,0.040631859,ocpdo8
20,35,FIELD,REL,r,4.189108375,5.35321928,1,368,72,32,0.284884024,ocpdo8
20,35,TIGER,UNREL,r,2.459390987,4.142626275,1,760.0952380952381,73,57,0.34483263,ocpdo8
20,35,ONION,UNREL,b,3.147773871,3.874821707,1,710.434,74,36,0.024638016,ocpdo8
20,35,DWEED,NONCE,r,3.506495478,NA,1,1060.44,80,52,NA,ocpdo8
20,35,BIRTH,REL,r,3.331052745,4.789408745,1,601.6,81,14,0.686182952,ocpdo8
20,35,KNURN,NONCE,b,4.216284055,NA,1,764.5,83,31,NA,ocpdo8
20,35,GNISP,NONCE,r,3.681799882,NA,1,1023.24,86,46,NA,ocpdo8
20,35,SALAD,UNREL,r,3.407217937,4.075985546,1,788.4761904761904,87,21,0.086324713,ocpdo8
20,35,PARTY,REL,r,4.104575844,5.35027968,1,397.25,89,2,0.643797235,ocpdo8
20,35,SPIFT,NONCE,r,3.734240866,NA,1,994.56,92,4,NA,ocpdo8
20,35,VECTS,NONCE,r,3.651952199,NA,1,879.24,93,22,NA,ocpdo8
20,35,FLOVE,NONCE,b,3.499480888,NA,1,826.9,94,37,NA,ocpdo8
20,35,WRUNK,NONCE,r,3.296803811,NA,1,881.7599999999999,96,40,NA,ocpdo8
20,35,SMECK,NONCE,b,3.570916411,NA,1,888.9,97,55,NA,ocpdo8
20,35,SMILE,REL,b,3.827345184,4.538804727,1,795,100,53,0.356322599,ocpdo8
20,35,TRAIN,REL,b,3.563555912,4.884322105,1,1993.8,102,59,0.704060439,ocpdo8
20,35,JESKS,NONCE,b,3.496627781,NA,1,826.6,104,19,NA,ocpdo8
20,35,GRAPE,UNREL,r,3.484128918,3.75194906,1,899.3333333333333,105,15,0.044440644,ocpdo8
20,35,GRANT,REL,b,2.935126552,4.850225334,1,1069.7,108,29,0.693079255,ocpdo8
20,35,JULTS,NONCE,r,3.087558969,NA,1,1131.36,109,16,NA,ocpdo8
20,35,LORRY,REL,b,2.794650654,3.193575913,1,767.2,110,23,0.504048878,ocpdo8
20,35,OCEAN,REL,r,3.671694735,4.714494586,1,332,111,38,0.436893167,ocpdo8
20,35,MARCH,REL,r,4.271877839,5.33947384,1,337.7,112,44,0.149010967,ocpdo8
20,35,FAITH,REL,r,3.485497116,4.909946679,1,332.75,114,26,0.387246038,ocpdo8
20,35,SPORT,REL,b,3.583221526,4.682414816,1,707.3000000000001,116,35,0.345946689,ocpdo8
20,35,PEACE,REL,r,4.166816978,5.000544983,1,424.54999999999995,117,20,0.399338922,ocpdo8
20,35,WOOSE,NONCE,b,4.054597373,NA,1,945.9,118,1,NA,ocpdo8
20,35,ACORN,UNREL,b,4.460251055,3.430462728,1,893.446,119,12,0.053296581,ocpdo8
21,27,JESKS,NONCE,b,3.496627781,NA,1,1228.5,3,19,NA,ngy5n3
21,27,FLOVE,NONCE,b,3.499480888,NA,1,1160.4,7,37,NA,ngy5n3
21,27,TRADE,REL,b,3.316655402,5.154909161,1,1075,8,5,0.538092297,ngy5n3
21,27,WRUNK,NONCE,r,3.296803811,NA,1,1164.9599999999998,10,40,NA,ngy5n3
21,27,GENCE,NONCE,r,2.761427779,NA,1,1987.08,11,34,NA,ngy5n3
21,27,FIGHT,REL,r,3.603458685,4.976780877,1,447.55,12,8,0.546862958,ngy5n3
21,27,PIPER,UNREL,b,2.442833304,3.583693845,1,899.203,13,60,0.332504352,ngy5n3
21,27,SPIFT,NONCE,r,3.734240866,NA,1,1257.36,14,4,NA,ngy5n3
21,27,CURRY,UNREL,r,4.528661332,3.821678729,1,737.9047619047619,16,33,0.096814912,ngy5n3
21,27,STOUT,UNREL,b,3.927682114,3.549681245,1,1317.949,18,6,0.073515012,ngy5n3
21,27,GRAPE,UNREL,r,3.484128918,3.75194906,1,1028.1904761904761,19,15,0.044440644,ngy5n3
21,27,LORRY,REL,b,2.794650654,3.193575913,1,1163.2,20,23,0.504048878,ngy5n3
21,27,DINTH,NONCE,b,4.870998895,NA,1,1006.5,22,13,NA,ngy5n3
21,27,GARGE,NONCE,b,3.96226586,NA,1,1836.6,23,25,NA,ngy5n3
21,27,BACON,REL,b,3.590390365,3.975196615,1,1099,24,17,0.581803613,ngy5n3
21,27,FAITH,REL,r,3.485497116,4.909946679,1,388.90000000000003,30,26,0.387246038,ngy5n3
21,27,DISCO,UNREL,r,3.541556206,3.655557686,1,1030.952380952381,31,45,0.069841755,ngy5n3
21,27,NYLON,UNREL,r,4.257983625,3.681235784,1,879.8095238095237,33,51,0.023932131,ngy5n3
21,27,MELON,UNREL,r,5.294762043,3.192247125,1,844.5714285714286,34,3,0.029311037,ngy5n3
21,27,SALAD,UNREL,r,3.407217937,4.075985546,1,964.3809523809524,38,21,0.086324713,ngy5n3
21,27,BINGO,UNREL,b,4.78505379,3.844663502,1,1113.727,40,24,0.042999458,ngy5n3
21,27,TORSO,UNREL,r,4.042783642,3.489874614,1,1423.047619047619,43,9,0.091146301,ngy5n3
21,27,FIELD,REL,r,4.189108375,5.35321928,1,466,46,32,0.284884024,ngy5n3
21,27,VECTS,NONCE,r,3.651952199,NA,1,1410.36,47,22,NA,ngy5n3
21,27,SPORT,REL,b,3.583221526,4.682414816,1,983.3,48,35,0.345946689,ngy5n3
21,27,TIRTH,NONCE,r,5.075778593,NA,1,1321.0800000000002,49,10,NA,ngy5n3
21,27,GRANT,REL,b,2.935126552,4.850225334,1,779.5,53,29,0.693079255,ngy5n3
21,27,MERCY,UNREL,b,2.954817735,4.227867511,1,843.047,54,54,0.200530544,ngy5n3
21,27,TROLF,NONCE,b,4.141850119,NA,1,988.2,55,7,NA,ngy5n3
21,27,PLANE,REL,b,4.382518198,4.578922163,1,792.9000000000001,58,11,0.297423709,ngy5n3
21,27,KNURN,NONCE,b,4.216284055,NA,1,905.2,59,31,NA,ngy5n3
21,27,MARCH,REL,r,4.271877839,5.33947384,1,379.09999999999997,60,44,0.149010967,ngy5n3
21,27,PARTY,REL,r,4.104575844,5.35027968,1,354.6,62,2,0.643797235,ngy5n3
21,27,SMECK,NONCE,b,3.570916411,NA,1,851.4000000000001,66,55,NA,ngy5n3
21,27,ACORN,UNREL,b,4.460251055,3.430462728,1,737.603,71,12,0.053296581,ngy5n3
21,27,GLAFT,NONCE,r,4.510372539,NA,1,1684.44,72,58,NA,ngy5n3
21,27,PEACE,REL,r,4.166816978,5.000544983,1,446.90000000000003,73,20,0.399338922,ngy5n3
21,27,TRAIN,REL,b,3.563555912,4.884322105,1,746.6,75,59,0.704060439,ngy5n3
21,27,SWILK,NONCE,r,3.571960851,NA,1,1276.9199999999998,77,28,NA,ngy5n3
21,27,DWEED,NONCE,r,3.506495478,NA,1,1296.84,79,52,NA,ngy5n3
21,27,GNISP,NONCE,r,3.681799882,NA,1,915.36,83,46,NA,ngy5n3
21,27,POUCH,UNREL,b,5.005747312,3.519602188,1,1560.551,86,18,0.028582389,ngy5n3
21,27,PEARL,UNREL,r,3.784228166,4.091225612,1,994.095238095238,89,39,0.144013775,ngy5n3
21,27,AISLE,UNREL,b,4.33783738,3.65360327,1,1944.755,90,30,0.040631859,ngy5n3
21,27,MODEL,REL,b,3.223196377,5.311004219,1,961,92,47,0.31482591,ngy5n3
21,27,WOOSE,NONCE,b,4.054597373,NA,1,1201.1,93,1,NA,ngy5n3
21,27,LAUGH,REL,r,3.672348826,4.316053735,1,520.15,96,50,0.419525812,ngy5n3
21,27,OCEAN,REL,r,3.671694735,4.714494586,1,640.5,99,38,0.436893167,ngy5n3
21,27,WHEAT,UNREL,b,5.617442386,4.199949835,1,1075.5490000000002,100,42,0.072750297,ngy5n3
21,27,BIRTH,REL,r,3.331052745,4.789408745,1,499.25,101,14,0.686182952,ngy5n3
21,27,WROSH,NONCE,b,3.001120593,NA,1,961.4,102,43,NA,ngy5n3
21,27,VOICE,REL,r,4.438372257,5.048236364,1,516.7,108,56,0.43050393,ngy5n3
21,27,TIGER,UNREL,r,2.459390987,4.142626275,1,918.0952380952381,110,57,0.34483263,ngy5n3
21,27,MUSIC,REL,b,3.949644483,5.474563669,1,1137.4,111,41,0.500925534,ngy5n3
21,27,ONION,UNREL,b,3.147773871,3.874821707,1,1250.481,113,36,0.024638016,ngy5n3
21,27,SWEFT,NONCE,b,3.659160937,NA,1,1010.2,114,49,NA,ngy5n3
21,27,SMILE,REL,b,3.827345184,4.538804727,1,1125.3,115,53,0.356322599,ngy5n3
21,27,SPOON,UNREL,b,4.223689768,3.744015211,1,1078.377,116,48,0.030983292,ngy5n3
21,27,ALIEN,UNREL,r,4.064504628,4.254807488,1,1071.9999999999998,120,27,0.128075313,ngy5n3
22,27,STAGE,REL,r,3.927682114,5.108336861,1,368.20000000000005,3,6,0.581022535,4ueow3
22,27,GLOBE,UNREL,b,3.506495478,4.416076472,1,632.664,4,52,0.282091996,4ueow3
22,27,DIRPS,NONCE,b,3.316655402,NA,1,697.6,5,5,NA,4ueow3
22,27,BLOOD,REL,r,3.147773871,5.105996143,1,300.05,7,36,0.229315858,4ueow3
22,27,STUNT,UNREL,b,3.734240866,3.567262547,1,742.35,8,4,0.101478916,4ueow3
22,27,GELPS,NONCE,r,4.438372257,NA,1,939.2399999999999,9,56,NA,4ueow3
22,27,MAFTS,NONCE,r,3.671694735,NA,1,650.7599999999999,11,38,NA,4ueow3
22,27,NIRCH,NONCE,b,3.827345184,NA,1,671.2,13,53,NA,4ueow3
22,27,BERRY,UNREL,b,4.510372539,3.930373842,1,785.6790000000001,14,58,0.410938427,4ueow3
22,27,PIANO,UNREL,r,3.496627781,4.453364025,1,640.5714285714286,15,19,0.066770659,4ueow3
22,27,OLIVE,UNREL,r,4.870998895,4.138893633,1,586.2857142857143,16,13,0.046719131,4ueow3
22,27,MODEM,UNREL,r,3.96226586,3.755853299,1,845.6190476190476,17,25,0.012195619,4ueow3
22,27,BRICK,REL,b,4.042783642,4.255257406,1,551.1,18,9,0.647438362,4ueow3
22,27,BONUS,REL,r,5.005747312,4.515522967,1,325.84999999999997,19,18,0.125759944,4ueow3
22,27,ROKES,NONCE,r,4.271877839,NA,1,967.3199999999999,21,44,NA,4ueow3
22,27,TRIBE,UNREL,b,3.651952199,4.189781038,1,657.207,22,22,0.169582503,4ueow3
22,27,YURFS,NONCE,r,3.672348826,NA,1,890.7599999999999,25,50,NA,4ueow3
22,27,GLIRM,NONCE,r,4.189108375,NA,1,819.72,27,32,NA,4ueow3
22,27,SLANG,UNREL,r,4.141850119,3.39835149,1,765.1428571428571,28,7,0.049636608,4ueow3
22,27,PIVED,NONCE,r,3.603458685,NA,1,1081.08,29,8,NA,4ueow3
22,27,TUTOR,UNREL,r,3.001120593,3.930647709,1,560.8571428571428,31,43,0.092758339,4ueow3
22,27,GUEST,REL,r,2.442833304,4.677271228,1,320,35,60,0.469866532,4ueow3
22,27,TRUNK,UNREL,b,3.681799882,4.022054607,1,654.48,40,46,-3.5711e-5,4ueow3
22,27,DRAIN,REL,b,3.407217937,4.147611827,1,702.8,43,21,0.387145282,4ueow3
22,27,NERNS,NONCE,b,3.563555912,NA,1,632.7,44,59,NA,4ueow3
22,27,STEEL,REL,b,4.528661332,4.773777517,1,750.8000000000001,45,33,0.358177388,4ueow3
22,27,STAMP,REL,r,2.954817735,4.107372874,1,276.84999999999997,46,54,0.44493658,4ueow3
22,27,CADET,UNREL,r,4.054597373,3.463204461,1,651.4285714285714,47,1,0.239131041,4ueow3
22,27,DAIRY,REL,b,2.459390987,4.20061812,1,700.9,48,57,0.241572992,4ueow3
22,27,QUIBS,NONCE,r,4.104575844,NA,1,1169.1599999999999,49,2,NA,4ueow3
22,27,POWER,REL,b,5.294762043,5.588746199,1,603.3,52,3,0.120705124,4ueow3
22,27,HORSE,REL,b,3.484128918,4.713931387,1,571.1,53,15,0.821285068,4ueow3
22,27,DOOPS,NONCE,b,2.794650654,NA,1,918.3,56,23,NA,4ueow3
22,27,BESKS,NONCE,r,3.485497116,NA,1,727.8,58,26,NA,4ueow3
22,27,WHEEL,REL,b,3.784228166,4.550270351,1,675,60,39,0.656811439,4ueow3
22,27,GRAPH,REL,r,4.223689768,4.176312386,1,311.95,61,48,0.141363369,4ueow3
22,27,YOUTH,UNREL,r,4.216284055,4.938331983,1,624.4761904761904,64,31,0.110552167,4ueow3
22,27,SHARK,UNREL,b,3.087558969,3.929769388,1,544.5920000000001,65,16,0.095724535,4ueow3
22,27,PLANT,REL,b,3.541556206,5.026411782,1,567.9,67,45,0.501397476,4ueow3
22,27,DROWL,NONCE,b,2.935126552,NA,1,926.8,69,29,NA,4ueow3
22,27,BROOM,REL,b,4.064504628,3.354276001,1,749,70,27,0.363666985,4ueow3
22,27,TOWER,REL,b,4.257983625,4.604307777,1,666.3,75,51,0.65194005,4ueow3
22,27,GLOMP,NONCE,b,3.949644483,NA,1,617.1999999999999,79,41,NA,4ueow3
22,27,NULSE,NONCE,b,3.590390365,NA,1,728.5,81,17,NA,4ueow3
22,27,BOARD,REL,r,5.617442386,5.350430177,1,364.70000000000005,85,42,0.291918533,4ueow3
22,27,BRURL,NONCE,r,4.166816978,NA,1,672.72,86,20,NA,4ueow3
22,27,DWERT,NONCE,r,3.331052745,NA,1,699.3599999999999,87,14,NA,4ueow3
22,27,FLERG,NONCE,b,4.382518198,NA,1,562,88,11,NA,4ueow3
22,27,INDEX,UNREL,b,3.571960851,4.74479794,1,691.345,89,28,0.069182129,4ueow3
22,27,ESSAY,REL,r,4.78505379,4.668647528,1,338.2,91,24,0.229238232,4ueow3
22,27,GELKS,NONCE,b,3.583221526,NA,1,615.8000000000001,93,35,NA,4ueow3
22,27,PAPER,REL,r,4.33783738,5.230293913,1,286.7,96,30,0.359043466,4ueow3
22,27,BRIDE,UNREL,r,3.570916411,3.990911755,1,1111.3333333333335,97,55,0.039438298,4ueow3
22,27,STUMP,UNREL,b,5.075778593,3.413519289,1,747.501,99,10,0.055355864,4ueow3
22,27,SALON,UNREL,r,3.499480888,3.900709192,1,1065.8095238095236,101,37,0.110577655,4ueow3
22,27,YULBS,NONCE,b,3.223196377,NA,1,606.7,104,47,NA,4ueow3
22,27,STAFF,REL,r,4.460251055,5.302678942,1,300.20000000000005,107,12,0.365606156,4ueow3
22,27,BASIL,UNREL,b,3.296803811,3.689125491,1,839.411,108,40,0.137191468,4ueow3
22,27,ALARM,UNREL,r,3.659160937,4.273577104,1,476,117,49,0.146049347,4ueow3
22,27,RADAR,UNREL,b,2.761427779,4.205675385,1,619.635,118,34,0.042865261,4ueow3
23,28,POUCH,UNREL,r,5.005747312,3.519602188,1,888.4761904761904,2,18,0.028582389,gt064f
23,28,BACON,REL,r,3.590390365,3.975196615,1,414,4,17,0.581803613,gt064f
23,28,AISLE,UNREL,r,4.33783738,3.65360327,1,847.2380952380951,7,30,0.040631859,gt064f
23,28,PEARL,UNREL,b,3.784228166,4.091225612,1,754.7729999999999,8,39,0.144013775,gt064f
23,28,ALIEN,UNREL,b,4.064504628,4.254807488,1,1191.497,10,27,0.128075313,gt064f
23,28,PARTY,REL,b,4.104575844,5.35027968,1,864.1,12,2,0.643797235,gt064f
23,28,SMILE,REL,r,3.827345184,4.538804727,1,394.3,13,53,0.356322599,gt064f
23,28,VOICE,REL,b,4.438372257,5.048236364,1,975.9,16,56,0.43050393,gt064f
23,28,NYLON,UNREL,b,4.257983625,3.681235784,1,889.9110000000001,18,51,0.023932131,gt064f
23,28,MODEL,REL,r,3.223196377,5.311004219,1,399.9,19,47,0.31482591,gt064f
23,28,FAITH,REL,b,3.485497116,4.909946679,1,832.0999999999999,23,26,0.387246038,gt064f
23,28,TROLF,NONCE,r,4.141850119,NA,1,1558.44,25,7,NA,gt064f
23,28,OCEAN,REL,b,3.671694735,4.714494586,1,1133.5,27,38,0.436893167,gt064f
23,28,CURRY,UNREL,b,4.528661332,3.821678729,1,874.2560000000001,28,33,0.096814912,gt064f
23,28,LAUGH,REL,b,3.672348826,4.316053735,1,798.6,31,50,0.419525812,gt064f
23,28,TRADE,REL,r,3.316655402,5.154909161,1,390.05,36,5,0.538092297,gt064f
23,28,TORSO,UNREL,b,4.042783642,3.489874614,1,923.443,37,9,0.091146301,gt064f
23,28,WHEAT,UNREL,r,5.617442386,4.199949835,1,681.9047619047619,40,42,0.072750297,gt064f
23,28,GENCE,NONCE,b,2.761427779,NA,1,1136.4,42,34,NA,gt064f
23,28,WRUNK,NONCE,b,3.296803811,NA,1,982.2,43,40,NA,gt064f
23,28,GRANT,REL,r,2.935126552,4.850225334,1,675,44,29,0.693079255,gt064f
23,28,ONION,UNREL,r,3.147773871,3.874821707,1,903.4285714285714,46,36,0.024638016,gt064f
23,28,TRAIN,REL,r,3.563555912,4.884322105,1,377.09999999999997,48,59,0.704060439,gt064f
23,28,SPOON,UNREL,r,4.223689768,3.744015211,1,730.6666666666666,49,48,0.030983292,gt064f
23,28,GNISP,NONCE,b,3.681799882,NA,1,950.5,51,46,NA,gt064f
23,28,VECTS,NONCE,b,3.651952199,NA,1,963.7,52,22,NA,gt064f
23,28,SMECK,NONCE,r,3.570916411,NA,1,1085.64,53,55,NA,gt064f
23,28,SPIFT,NONCE,b,3.734240866,NA,1,1348.3,56,4,NA,gt064f
23,28,PIPER,UNREL,r,2.442833304,3.583693845,1,973.2380952380952,57,60,0.332504352,gt064f
23,28,GARGE,NONCE,r,3.96226586,NA,1,1196.1599999999999,58,25,NA,gt064f
23,28,FIELD,REL,b,4.189108375,5.35321928,1,948.7,60,32,0.284884024,gt064f
23,28,WOOSE,NONCE,r,4.054597373,NA,1,1337.16,63,1,NA,gt064f
23,28,JESKS,NONCE,r,3.496627781,NA,1,1095.24,67,19,NA,gt064f
23,28,SWEFT,NONCE,r,3.659160937,NA,1,1162.08,68,49,NA,gt064f
